{
  "resourceType": "Bundle",
  "id": "H2Q-MC-LZZT-Bundle-2",
  "type": "transaction",
  "entry": [
    {
      "resource": {
        "resourceType": "PlanDefinition",
        "id": "H2Q-MC-LZZT-Study-Visit-1",
        "meta": {
          "profile": [
            "http://example.org/br-and-r/soa/StructureDefinition/SOA-PlanDefinition"
          ]
        },
        "text": {
          "status": "extensions",
          "div": "<div xmlns=\"http://www.w3.org/1999/xhtml\"><p><b>Generated Narrative</b></p><p><b>Planned Study Day of Visit</b>: -14</p><p><b>identifier</b>: PLAC: VISIT-1 (USUAL), OID: SE.SCREENING_VISIT (SECONDARY)</p><p><b>status</b>: active</p><blockquote><p><b>action</b></p><p><b>title</b>: Record Visit Date</p><p><b>definition</b>: <code>ActivityDefinition/H2Q-MC-LZZT-Visit-Date</code></p></blockquote><blockquote><p><b>action</b></p><p><b>title</b>: Informed Consent </p><p><b>definition</b>: <code>ActivityDefinition/H2Q-MC-LZZT-Informed-Consent</code></p></blockquote><blockquote><p><b>action</b></p><p><b>title</b>: Patient number assigned </p><p><b>definition</b>: <code>ActivityDefinition/H2Q-MC-LZZT-Patient-number-assigned</code></p></blockquote><blockquote><p><b>action</b></p><p><b>title</b>: Hachinski 4 </p><p><b>definition</b>: <code>ActivityDefinition/H2Q-MC-LZZT-Hachinski-4</code></p></blockquote><blockquote><p><b>action</b></p><p><b>title</b>: MMSE 10-23 </p><p><b>definition</b>: <code>ActivityDefinition/H2Q-MC-LZZT-MMSE-10-23</code></p></blockquote><blockquote><p><b>action</b></p><p><b>title</b>: Physical examination </p><p><b>definition</b>: <code>ActivityDefinition/H2Q-MC-LZZT-Physical-examination</code></p></blockquote><blockquote><p><b>action</b></p><p><b>title</b>: Medical History </p><p><b>definition</b>: <code>ActivityDefinition/H2Q-MC-LZZT-Medical-History</code></p></blockquote><blockquote><p><b>action</b></p><p><b>title</b>: Habits - Alcohol</p><p><b>definition</b>: <code>ActivityDefinition/H2Q-MC-LZZT-Habits-Alcohol</code></p></blockquote><blockquote><p><b>action</b></p><p><b>title</b>: Habits - Caffeine</p><p><b>definition</b>: <code>ActivityDefinition/H2Q-MC-LZZT-Habits-Caffeine</code></p></blockquote><blockquote><p><b>action</b></p><p><b>title</b>: Habits - Smoking</p><p><b>definition</b>: <code>ActivityDefinition/H2Q-MC-LZZT-Habits-Smoking</code></p></blockquote><blockquote><p><b>action</b></p><p><b>title</b>: Chest x-ray </p><p><b>definition</b>: <code>ActivityDefinition/H2Q-MC-LZZT-Chest-x-ray</code></p></blockquote><blockquote><p><b>action</b></p><p><b>title</b>: Vital signs/Temperature </p><p><b>definition</b>: <code>ActivityDefinition/H2Q-MC-LZZT-Vital-signs/Temperature</code></p></blockquote><blockquote><p><b>action</b></p><p><b>title</b>: ECG </p><p><b>definition</b>: <code>ActivityDefinition/H2Q-MC-LZZT-ECG</code></p></blockquote><blockquote><p><b>action</b></p><p><b>title</b>: Placebo TTS test </p><p><b>definition</b>: <code>ActivityDefinition/H2Q-MC-LZZT-Placebo-TTS-test</code></p></blockquote><blockquote><p><b>action</b></p><p><b>title</b>: CT Scan</p><p><b>definition</b>: <code>ActivityDefinition/H2Q-MC-LZZT-CT-Scan</code></p></blockquote><blockquote><p><b>action</b></p><p><b>title</b>: Concomitant Medications </p><p><b>definition</b>: <code>ActivityDefinition/H2Q-MC-LZZT-Concomitant-Medications</code></p></blockquote><blockquote><p><b>action</b></p><p><b>title</b>: Laboratory (Chem/Hemat)</p><p><b>definition</b>: <code>ActivityDefinition/H2Q-MC-LZZT-Laboratory-(Chem/Hemat)</code></p></blockquote><blockquote><p><b>action</b></p><p><b>title</b>: Laboratory (Urinalysis) </p><p><b>definition</b>: <code>ActivityDefinition/H2Q-MC-LZZT-Laboratory-(Urinalysis)</code></p></blockquote><blockquote><p><b>action</b></p><p><b>title</b>: Hemoglobin A1C </p><p><b>definition</b>: <code>ActivityDefinition/H2Q-MC-LZZT-Hemoglobin-A1C</code></p></blockquote><blockquote><p><b>action</b></p><p><b>title</b>: ADAS-Cog </p><p><b>definition</b>: <code>ActivityDefinition/H2Q-MC-LZZT-ADAS-Cog</code></p></blockquote><blockquote><p><b>action</b></p><p><b>title</b>: CIBIC+ </p><p><b>definition</b>: <code>ActivityDefinition/H2Q-MC-LZZT-CIBIC+</code></p></blockquote><blockquote><p><b>action</b></p><p><b>title</b>: DAD </p><p><b>definition</b>: <code>ActivityDefinition/H2Q-MC-LZZT-DAD</code></p></blockquote><blockquote><p><b>action</b></p><p><b>title</b>: NPI-X </p><p><b>definition</b>: <code>ActivityDefinition/H2Q-MC-LZZT-NPI-X</code></p></blockquote><blockquote><p><b>action</b></p><p><b>title</b>: Adverse events </p><p><b>definition</b>: <code>ActivityDefinition/H2Q-MC-LZZT-Adverse-events</code></p></blockquote></div>"
        },
        "extension": [
          {
            "url": "http://example.org/br-and-r/soa/StructureDefinition/planned-visit-study-day",
            "valueInteger": -14
          }
        ],
        "identifier": [
          {
            "use": "usual",
            "type": {
              "coding": [
                {
                  "code": "PLAC"
                }
              ]
            },
            "value": "VISIT-1"
          },
          {
            "use": "secondary",
            "type": {
              "coding": [
                {
                  "system": "http://www.cdisc.org/ns/odm/v1.3#",
                  "display": "OID"
                }
              ],
              "text": "OID"
            },
            "system": "http://www.cdisc.org/ns/odm/v1.3/StudyDef#",
            "value": "SE.SCREENING_VISIT"
          }
        ],
        "status": "active",
        "action": [
          {
            "title": "Record Visit Date",
            "definitionUri": "ActivityDefinition/H2Q-MC-LZZT-Visit-Date"
          },
          {
            "title": "Informed Consent ",
            "definitionUri": "ActivityDefinition/H2Q-MC-LZZT-Informed-Consent"
          },
          {
            "title": "Patient number assigned ",
            "definitionUri": "ActivityDefinition/H2Q-MC-LZZT-Patient-number-assigned"
          },
          {
            "title": "Hachinski 4 ",
            "definitionUri": "ActivityDefinition/H2Q-MC-LZZT-Hachinski-4"
          },
          {
            "title": "MMSE 10-23 ",
            "definitionUri": "ActivityDefinition/H2Q-MC-LZZT-MMSE-10-23"
          },
          {
            "title": "Physical examination ",
            "definitionUri": "ActivityDefinition/H2Q-MC-LZZT-Physical-examination"
          },
          {
            "title": "Medical History ",
            "definitionUri": "ActivityDefinition/H2Q-MC-LZZT-Medical-History"
          },
          {
            "title": "Habits - Alcohol",
            "definitionUri": "ActivityDefinition/H2Q-MC-LZZT-Habits-Alcohol"
          },
          {
            "title": "Habits - Caffeine",
            "definitionUri": "ActivityDefinition/H2Q-MC-LZZT-Habits-Caffeine"
          },
          {
            "title": "Habits - Smoking",
            "definitionUri": "ActivityDefinition/H2Q-MC-LZZT-Habits-Smoking"
          },
          {
            "title": "Chest x-ray ",
            "definitionUri": "ActivityDefinition/H2Q-MC-LZZT-Chest-x-ray"
          },
          {
            "title": "Vital signs/Temperature ",
            "definitionUri": "ActivityDefinition/H2Q-MC-LZZT-Vital-signs/Temperature"
          },
          {
            "title": "ECG ",
            "definitionUri": "ActivityDefinition/H2Q-MC-LZZT-ECG"
          },
          {
            "title": "Placebo TTS test ",
            "definitionUri": "ActivityDefinition/H2Q-MC-LZZT-Placebo-TTS-test"
          },
          {
            "title": "CT Scan",
            "definitionUri": "ActivityDefinition/H2Q-MC-LZZT-CT-Scan"
          },
          {
            "title": "Concomitant Medications ",
            "definitionUri": "ActivityDefinition/H2Q-MC-LZZT-Concomitant-Medications"
          },
          {
            "title": "Laboratory (Chem/Hemat)",
            "definitionUri": "ActivityDefinition/H2Q-MC-LZZT-Laboratory-(Chem/Hemat)"
          },
          {
            "title": "Laboratory (Urinalysis) ",
            "definitionUri": "ActivityDefinition/H2Q-MC-LZZT-Laboratory-(Urinalysis)"
          },
          {
            "title": "Hemoglobin A1C ",
            "definitionUri": "ActivityDefinition/H2Q-MC-LZZT-Hemoglobin-A1C"
          },
          {
            "title": "ADAS-Cog ",
            "definitionUri": "ActivityDefinition/H2Q-MC-LZZT-ADAS-Cog"
          },
          {
            "title": "CIBIC+ ",
            "definitionUri": "ActivityDefinition/H2Q-MC-LZZT-CIBIC+"
          },
          {
            "title": "DAD ",
            "definitionUri": "ActivityDefinition/H2Q-MC-LZZT-DAD"
          },
          {
            "title": "NPI-X ",
            "definitionUri": "ActivityDefinition/H2Q-MC-LZZT-NPI-X"
          },
          {
            "title": "Adverse events ",
            "definitionUri": "ActivityDefinition/H2Q-MC-LZZT-Adverse-events"
          }
        ]
      },
      "request": {
        "method": "POST",
        "url": "PlanDefinition"
      }
    },
    {
      "resource": {
        "resourceType": "PlanDefinition",
        "id": "H2Q-MC-LZZT-Study-Visit-2",
        "meta": {
          "profile": [
            "http://example.org/br-and-r/soa/StructureDefinition/SOA-PlanDefinition"
          ]
        },
        "text": {
          "status": "extensions",
          "div": "<div xmlns=\"http://www.w3.org/1999/xhtml\"><p><b>Generated Narrative</b></p><p><b>Planned Study Day of Visit</b>: 0</p><p><b>identifier</b>: PLAC: VISIT-2 (USUAL), OID: SE.AMB_ECG_VISIT (SECONDARY)</p><p><b>status</b>: active</p><blockquote><p><b>action</b></p><p><b>title</b>: Record Visit Date</p><p><b>definition</b>: <code>ActivityDefinition/H2Q-MC-LZZT-Visit-Date</code></p></blockquote><blockquote><p><b>action</b></p><p><b>title</b>: Vital signs/Temperature </p><p><b>definition</b>: <code>ActivityDefinition/H2Q-MC-LZZT-Vital-signs/Temperature</code></p></blockquote><blockquote><p><b>action</b></p><p><b>title</b>: Ambulatory ECG placed </p><p><b>definition</b>: <code>ActivityDefinition/H2Q-MC-LZZT-Ambulatory-ECG-placed</code></p></blockquote><blockquote><p><b>action</b></p><p><b>title</b>: Adverse events </p><p><b>definition</b>: <code>ActivityDefinition/H2Q-MC-LZZT-Adverse-events</code></p></blockquote></div>"
        },
        "extension": [
          {
            "url": "http://example.org/br-and-r/soa/StructureDefinition/planned-visit-study-day",
            "valueInteger": 0
          }
        ],
        "identifier": [
          {
            "use": "usual",
            "type": {
              "coding": [
                {
                  "code": "PLAC"
                }
              ]
            },
            "value": "VISIT-2"
          },
          {
            "use": "secondary",
            "type": {
              "coding": [
                {
                  "system": "http://www.cdisc.org/ns/odm/v1.3#",
                  "display": "OID"
                }
              ]
            },
            "system": "http://www.cdisc.org/ns/odm/v1.3/StudyDef#",
            "value": "SE.AMB_ECG_VISIT"
          }
        ],
        "status": "active",
        "action": [
          {
            "title": "Record Visit Date",
            "definitionUri": "ActivityDefinition/H2Q-MC-LZZT-Visit-Date"
          },
          {
            "title": "Vital signs/Temperature ",
            "definitionUri": "ActivityDefinition/H2Q-MC-LZZT-Vital-signs/Temperature"
          },
          {
            "title": "Ambulatory ECG placed ",
            "definitionUri": "ActivityDefinition/H2Q-MC-LZZT-Ambulatory-ECG-placed"
          },
          {
            "title": "Adverse events ",
            "definitionUri": "ActivityDefinition/H2Q-MC-LZZT-Adverse-events"
          }
        ]
      },
      "request": {
        "method": "POST",
        "url": "PlanDefinition"
      }
    },
    {
      "resource": {
        "resourceType": "PlanDefinition",
        "id": "H2Q-MC-LZZT-Study-Visit-3",
        "meta": {
          "profile": [
            "http://example.org/br-and-r/soa/StructureDefinition/SOA-PlanDefinition"
          ]
        },
        "text": {
          "status": "extensions",
          "div": "<div xmlns=\"http://www.w3.org/1999/xhtml\"><p><b>Generated Narrative</b></p><p><b>Planned Study Day of Visit</b>: 0</p><p><b>identifier</b>: PLAC: VISIT-3 (USUAL), OID: SE.RANDOMIZATION_VISIT (SECONDARY)</p><p><b>status</b>: active</p><blockquote><p><b>action</b></p><p><b>title</b>: Record Visit Date</p><p><b>definition</b>: <code>ActivityDefinition/H2Q-MC-LZZT-Visit-Date</code></p></blockquote><blockquote><p><b>action</b></p><p><b>title</b>: Patient randomized </p><p><b>definition</b>: <code>ActivityDefinition/H2Q-MC-LZZT-Patient-randomized</code></p></blockquote><blockquote><p><b>action</b></p><p><b>title</b>: Vital signs/Temperature </p><p><b>definition</b>: <code>ActivityDefinition/H2Q-MC-LZZT-Vital-signs/Temperature</code></p></blockquote><blockquote><p><b>action</b></p><p><b>title</b>: Ambulatory ECG removed </p><p><b>definition</b>: <code>ActivityDefinition/H2Q-MC-LZZT-Ambulatory-ECG-removed</code></p></blockquote><blockquote><p><b>action</b></p><p><b>title</b>: Concomitant Medications </p><p><b>definition</b>: <code>ActivityDefinition/H2Q-MC-LZZT-Concomitant-Medications</code></p></blockquote><blockquote><p><b>action</b></p><p><b>title</b>: Laboratory (Urinalysis) </p><p><b>definition</b>: <code>ActivityDefinition/H2Q-MC-LZZT-Laboratory-(Urinalysis)</code></p></blockquote><blockquote><p><b>action</b></p><p><b>title</b>: Plasma Specimen </p><p><b>definition</b>: <code>ActivityDefinition/H2Q-MC-LZZT-Plasma-Specimen</code></p></blockquote><blockquote><p><b>action</b></p><p><b>title</b>: Study drug record </p><p><b>definition</b>: <code>ActivityDefinition/H2Q-MC-LZZT-Study-drug-record</code></p></blockquote><blockquote><p><b>action</b></p><p><b>title</b>: ADAS-Cog </p><p><b>definition</b>: <code>ActivityDefinition/H2Q-MC-LZZT-ADAS-Cog</code></p></blockquote><blockquote><p><b>action</b></p><p><b>title</b>: CIBIC+ </p><p><b>definition</b>: <code>ActivityDefinition/H2Q-MC-LZZT-CIBIC+</code></p></blockquote><blockquote><p><b>action</b></p><p><b>title</b>: DAD </p><p><b>definition</b>: <code>ActivityDefinition/H2Q-MC-LZZT-DAD</code></p></blockquote><blockquote><p><b>action</b></p><p><b>title</b>: NPI-X </p><p><b>definition</b>: <code>ActivityDefinition/H2Q-MC-LZZT-NPI-X</code></p></blockquote><blockquote><p><b>action</b></p><p><b>title</b>: Adverse events </p><p><b>definition</b>: <code>ActivityDefinition/H2Q-MC-LZZT-Adverse-events</code></p></blockquote></div>"
        },
        "extension": [
          {
            "url": "http://example.org/br-and-r/soa/StructureDefinition/planned-visit-study-day",
            "valueInteger": 0
          }
        ],
        "identifier": [
          {
            "use": "usual",
            "type": {
              "coding": [
                {
                  "code": "PLAC"
                }
              ]
            },
            "value": "VISIT-3"
          },
          {
            "use": "secondary",
            "type": {
              "coding": [
                {
                  "system": "http://www.cdisc.org/ns/odm/v1.3#",
                  "display": "OID"
                }
              ]
            },
            "system": "http://www.cdisc.org/ns/odm/v1.3/StudyDef#",
            "value": "SE.RANDOMIZATION_VISIT"
          }
        ],
        "status": "active",
        "action": [
          {
            "title": "Record Visit Date",
            "definitionUri": "ActivityDefinition/H2Q-MC-LZZT-Visit-Date"
          },
          {
            "title": "Patient randomized ",
            "definitionUri": "ActivityDefinition/H2Q-MC-LZZT-Patient-randomized"
          },
          {
            "title": "Vital signs/Temperature ",
            "definitionUri": "ActivityDefinition/H2Q-MC-LZZT-Vital-signs/Temperature"
          },
          {
            "title": "Ambulatory ECG removed ",
            "definitionUri": "ActivityDefinition/H2Q-MC-LZZT-Ambulatory-ECG-removed"
          },
          {
            "title": "Concomitant Medications ",
            "definitionUri": "ActivityDefinition/H2Q-MC-LZZT-Concomitant-Medications"
          },
          {
            "title": "Laboratory (Urinalysis) ",
            "definitionUri": "ActivityDefinition/H2Q-MC-LZZT-Laboratory-(Urinalysis)"
          },
          {
            "title": "Plasma Specimen ",
            "definitionUri": "ActivityDefinition/H2Q-MC-LZZT-Plasma-Specimen"
          },
          {
            "title": "Study drug record ",
            "definitionUri": "ActivityDefinition/H2Q-MC-LZZT-Study-drug-record"
          },
          {
            "title": "ADAS-Cog ",
            "definitionUri": "ActivityDefinition/H2Q-MC-LZZT-ADAS-Cog"
          },
          {
            "title": "CIBIC+ ",
            "definitionUri": "ActivityDefinition/H2Q-MC-LZZT-CIBIC+"
          },
          {
            "title": "DAD ",
            "definitionUri": "ActivityDefinition/H2Q-MC-LZZT-DAD"
          },
          {
            "title": "NPI-X ",
            "definitionUri": "ActivityDefinition/H2Q-MC-LZZT-NPI-X"
          },
          {
            "title": "Adverse events ",
            "definitionUri": "ActivityDefinition/H2Q-MC-LZZT-Adverse-events"
          }
        ]
      },
      "request": {
        "method": "POST",
        "url": "PlanDefinition"
      }
    },
    {
      "resource": {
        "resourceType": "PlanDefinition",
        "id": "H2Q-MC-LZZT-Study-Visit-4",
        "meta": {
          "profile": [
            "http://example.org/br-and-r/soa/StructureDefinition/SOA-PlanDefinition"
          ]
        },
        "text": {
          "status": "extensions",
          "div": "<div xmlns=\"http://www.w3.org/1999/xhtml\"><p><b>Generated Narrative</b></p><p><b>Planned Study Day of Visit</b>: 14</p><p><b>identifier</b>: PLAC: VISIT-4 (USUAL), OID: SE.TRT_VISIT_01 (SECONDARY)</p><p><b>status</b>: active</p><blockquote><p><b>action</b></p><p><b>title</b>: Record Visit Date</p><p><b>definition</b>: <code>ActivityDefinition/H2Q-MC-LZZT-Visit-Date</code></p></blockquote><blockquote><p><b>action</b></p><p><b>title</b>: Apo E genotyping </p><p><b>definition</b>: <code>ActivityDefinition/H2Q-MC-LZZT-Apo-E-genotyping</code></p></blockquote><blockquote><p><b>action</b></p><p><b>title</b>: Vital signs/Temperature </p><p><b>definition</b>: <code>ActivityDefinition/H2Q-MC-LZZT-Vital-signs/Temperature</code></p></blockquote><blockquote><p><b>action</b></p><p><b>title</b>: ECG </p><p><b>definition</b>: <code>ActivityDefinition/H2Q-MC-LZZT-ECG</code></p></blockquote><blockquote><p><b>action</b></p><p><b>title</b>: Concomitant Medications </p><p><b>definition</b>: <code>ActivityDefinition/H2Q-MC-LZZT-Concomitant-Medications</code></p></blockquote><blockquote><p><b>action</b></p><p><b>title</b>: Laboratory (Chem/Hemat)</p><p><b>definition</b>: <code>ActivityDefinition/H2Q-MC-LZZT-Laboratory-(Chem/Hemat)</code></p></blockquote><blockquote><p><b>action</b></p><p><b>title</b>: Plasma Specimen </p><p><b>definition</b>: <code>ActivityDefinition/H2Q-MC-LZZT-Plasma-Specimen</code></p></blockquote><blockquote><p><b>action</b></p><p><b>title</b>: Study drug record </p><p><b>definition</b>: <code>ActivityDefinition/H2Q-MC-LZZT-Study-drug-record</code></p></blockquote><blockquote><p><b>action</b></p><p><b>title</b>: NPI-X </p><p><b>definition</b>: <code>ActivityDefinition/H2Q-MC-LZZT-NPI-X</code></p></blockquote><blockquote><p><b>action</b></p><p><b>title</b>: Adverse events </p><p><b>definition</b>: <code>ActivityDefinition/H2Q-MC-LZZT-Adverse-events</code></p></blockquote></div>"
        },
        "extension": [
          {
            "url": "http://example.org/br-and-r/soa/StructureDefinition/planned-visit-study-day",
            "valueInteger": 14
          }
        ],
        "identifier": [
          {
            "use": "usual",
            "type": {
              "coding": [
                {
                  "code": "PLAC"
                }
              ]
            },
            "value": "VISIT-4"
          },
          {
            "use": "secondary",
            "type": {
              "coding": [
                {
                  "system": "http://www.cdisc.org/ns/odm/v1.3#",
                  "display": "OID"
                }
              ]
            },
            "system": "http://www.cdisc.org/ns/odm/v1.3/StudyDef#",
            "value": "SE.TRT_VISIT_01"
          }
        ],
        "status": "active",
        "action": [
          {
            "title": "Record Visit Date",
            "definitionUri": "ActivityDefinition/H2Q-MC-LZZT-Visit-Date"
          },
          {
            "title": "Apo E genotyping ",
            "definitionUri": "ActivityDefinition/H2Q-MC-LZZT-Apo-E-genotyping"
          },
          {
            "title": "Vital signs/Temperature ",
            "definitionUri": "ActivityDefinition/H2Q-MC-LZZT-Vital-signs/Temperature"
          },
          {
            "title": "ECG ",
            "definitionUri": "ActivityDefinition/H2Q-MC-LZZT-ECG"
          },
          {
            "title": "Concomitant Medications ",
            "definitionUri": "ActivityDefinition/H2Q-MC-LZZT-Concomitant-Medications"
          },
          {
            "title": "Laboratory (Chem/Hemat)",
            "definitionUri": "ActivityDefinition/H2Q-MC-LZZT-Laboratory-(Chem/Hemat)"
          },
          {
            "title": "Plasma Specimen ",
            "definitionUri": "ActivityDefinition/H2Q-MC-LZZT-Plasma-Specimen"
          },
          {
            "title": "Study drug record ",
            "definitionUri": "ActivityDefinition/H2Q-MC-LZZT-Study-drug-record"
          },
          {
            "title": "NPI-X ",
            "definitionUri": "ActivityDefinition/H2Q-MC-LZZT-NPI-X"
          },
          {
            "title": "Adverse events ",
            "definitionUri": "ActivityDefinition/H2Q-MC-LZZT-Adverse-events"
          }
        ]
      },
      "request": {
        "method": "POST",
        "url": "PlanDefinition"
      }
    },
    {
      "resource": {
        "resourceType": "PlanDefinition",
        "id": "H2Q-MC-LZZT-Study-Visit-5",
        "meta": {
          "profile": [
            "http://example.org/br-and-r/soa/StructureDefinition/SOA-PlanDefinition"
          ]
        },
        "text": {
          "status": "extensions",
          "div": "<div xmlns=\"http://www.w3.org/1999/xhtml\"><p><b>Generated Narrative</b></p><p><b>Planned Study Day of Visit</b>: 21</p><p><b>identifier</b>: PLAC: VISIT-5 (USUAL), OID: SE.TRT_VISIT_02 (SECONDARY)</p><p><b>status</b>: active</p><blockquote><p><b>action</b></p><p><b>title</b>: Record Visit Date</p><p><b>definition</b>: <code>ActivityDefinition/H2Q-MC-LZZT-Visit-Date</code></p></blockquote><blockquote><p><b>action</b></p><p><b>title</b>: Vital signs/Temperature </p><p><b>definition</b>: <code>ActivityDefinition/H2Q-MC-LZZT-Vital-signs/Temperature</code></p></blockquote><blockquote><p><b>action</b></p><p><b>title</b>: ECG </p><p><b>definition</b>: <code>ActivityDefinition/H2Q-MC-LZZT-ECG</code></p></blockquote><blockquote><p><b>action</b></p><p><b>title</b>: Concomitant Medications </p><p><b>definition</b>: <code>ActivityDefinition/H2Q-MC-LZZT-Concomitant-Medications</code></p></blockquote><blockquote><p><b>action</b></p><p><b>title</b>: Laboratory (Chem/Hemat)</p><p><b>definition</b>: <code>ActivityDefinition/H2Q-MC-LZZT-Laboratory-(Chem/Hemat)</code></p></blockquote><blockquote><p><b>action</b></p><p><b>title</b>: Plasma Specimen </p><p><b>definition</b>: <code>ActivityDefinition/H2Q-MC-LZZT-Plasma-Specimen</code></p></blockquote><blockquote><p><b>action</b></p><p><b>title</b>: Study drug record </p><p><b>definition</b>: <code>ActivityDefinition/H2Q-MC-LZZT-Study-drug-record</code></p></blockquote><blockquote><p><b>action</b></p><p><b>title</b>: NPI-X </p><p><b>definition</b>: <code>ActivityDefinition/H2Q-MC-LZZT-NPI-X</code></p></blockquote><blockquote><p><b>action</b></p><p><b>title</b>: Adverse events </p><p><b>definition</b>: <code>ActivityDefinition/H2Q-MC-LZZT-Adverse-events</code></p></blockquote></div>"
        },
        "extension": [
          {
            "url": "http://example.org/br-and-r/soa/StructureDefinition/planned-visit-study-day",
            "valueInteger": 21
          }
        ],
        "identifier": [
          {
            "use": "usual",
            "type": {
              "coding": [
                {
                  "code": "PLAC"
                }
              ]
            },
            "value": "VISIT-5"
          },
          {
            "use": "secondary",
            "type": {
              "coding": [
                {
                  "system": "http://www.cdisc.org/ns/odm/v1.3#",
                  "display": "OID"
                }
              ]
            },
            "system": "http://www.cdisc.org/ns/odm/v1.3/StudyDef#",
            "value": "SE.TRT_VISIT_02"
          }
        ],
        "status": "active",
        "action": [
          {
            "title": "Record Visit Date",
            "definitionUri": "ActivityDefinition/H2Q-MC-LZZT-Visit-Date"
          },
          {
            "title": "Vital signs/Temperature ",
            "definitionUri": "ActivityDefinition/H2Q-MC-LZZT-Vital-signs/Temperature"
          },
          {
            "title": "ECG ",
            "definitionUri": "ActivityDefinition/H2Q-MC-LZZT-ECG"
          },
          {
            "title": "Concomitant Medications ",
            "definitionUri": "ActivityDefinition/H2Q-MC-LZZT-Concomitant-Medications"
          },
          {
            "title": "Laboratory (Chem/Hemat)",
            "definitionUri": "ActivityDefinition/H2Q-MC-LZZT-Laboratory-(Chem/Hemat)"
          },
          {
            "title": "Plasma Specimen ",
            "definitionUri": "ActivityDefinition/H2Q-MC-LZZT-Plasma-Specimen"
          },
          {
            "title": "Study drug record ",
            "definitionUri": "ActivityDefinition/H2Q-MC-LZZT-Study-drug-record"
          },
          {
            "title": "NPI-X ",
            "definitionUri": "ActivityDefinition/H2Q-MC-LZZT-NPI-X"
          },
          {
            "title": "Adverse events ",
            "definitionUri": "ActivityDefinition/H2Q-MC-LZZT-Adverse-events"
          }
        ]
      },
      "request": {
        "method": "POST",
        "url": "PlanDefinition"
      }
    },
    {
      "resource": {
        "resourceType": "PlanDefinition",
        "id": "H2Q-MC-LZZT-Study-Visit-6",
        "meta": {
          "profile": [
            "http://example.org/br-and-r/soa/StructureDefinition/SOA-PlanDefinition"
          ]
        },
        "text": {
          "status": "extensions",
          "div": "<div xmlns=\"http://www.w3.org/1999/xhtml\"><p><b>Generated Narrative</b></p><p><b>Planned Study Day of Visit</b>: 28</p><p><b>identifier</b>: id: VISIT-6, OID: SE.TRT_VISIT_03 (SECONDARY)</p><p><b>status</b>: active</p><h3>Actions</h3><table class=\"grid\"><tr><td>-</td><td><b>Title</b></td><td><b>Definition[x]</b></td></tr><tr><td>*</td><td>Record Visit Date</td><td><code>ActivityDefinition/H2Q-MC-LZZT-Visit-Date</code></td></tr></table></div>"
        },
        "extension": [
          {
            "url": "http://example.org/br-and-r/soa/StructureDefinition/planned-visit-study-day",
            "valueInteger": 28
          }
        ],
        "identifier": [
          {
            "value": "VISIT-6"
          },
          {
            "use": "secondary",
            "type": {
              "coding": [
                {
                  "system": "http://www.cdisc.org/ns/odm/v1.3#",
                  "display": "OID"
                }
              ]
            },
            "system": "http://www.cdisc.org/ns/odm/v1.3/StudyDef#",
            "value": "SE.TRT_VISIT_03"
          }
        ],
        "status": "active",
        "action": [
          {
            "title": "Record Visit Date",
            "definitionUri": "ActivityDefinition/H2Q-MC-LZZT-Visit-Date"
          }
        ]
      },
      "request": {
        "method": "POST",
        "url": "PlanDefinition"
      }
    },
    {
      "resource": {
        "resourceType": "PlanDefinition",
        "id": "H2Q-MC-LZZT-Study-Visit-7",
        "meta": {
          "profile": [
            "http://example.org/br-and-r/soa/StructureDefinition/SOA-PlanDefinition"
          ]
        },
        "text": {
          "status": "extensions",
          "div": "<div xmlns=\"http://www.w3.org/1999/xhtml\"><p><b>Generated Narrative</b></p><p><b>Planned Study Day of Visit</b>: 42</p><p><b>identifier</b>: id: VISIT-7, OID: SE.TRT_VISIT_04 (SECONDARY)</p><p><b>status</b>: active</p><blockquote><p><b>action</b></p><p><b>title</b>: Record Visit Date</p><p><b>definition</b>: <code>ActivityDefinition/H2Q-MC-LZZT-Visit-Date</code></p></blockquote><blockquote><p><b>action</b></p><p><b>title</b>: Vital signs/Temperature </p><p><b>definition</b>: <code>ActivityDefinition/H2Q-MC-LZZT-Vital-signs/Temperature</code></p></blockquote><blockquote><p><b>action</b></p><p><b>title</b>: ECG </p><p><b>definition</b>: <code>ActivityDefinition/H2Q-MC-LZZT-ECG</code></p></blockquote><blockquote><p><b>action</b></p><p><b>title</b>: Concomitant Medications </p><p><b>definition</b>: <code>ActivityDefinition/H2Q-MC-LZZT-Concomitant-Medications</code></p></blockquote><blockquote><p><b>action</b></p><p><b>title</b>: Laboratory (Chem/Hemat)</p><p><b>definition</b>: <code>ActivityDefinition/H2Q-MC-LZZT-Laboratory-(Chem/Hemat)</code></p></blockquote><blockquote><p><b>action</b></p><p><b>title</b>: Plasma Specimen </p><p><b>definition</b>: <code>ActivityDefinition/H2Q-MC-LZZT-Plasma-Specimen</code></p></blockquote><blockquote><p><b>action</b></p><p><b>title</b>: Study drug record </p><p><b>definition</b>: <code>ActivityDefinition/H2Q-MC-LZZT-Study-drug-record</code></p></blockquote><blockquote><p><b>action</b></p><p><b>title</b>: NPI-X </p><p><b>definition</b>: <code>ActivityDefinition/H2Q-MC-LZZT-NPI-X</code></p></blockquote><blockquote><p><b>action</b></p><p><b>title</b>: Adverse events </p><p><b>definition</b>: <code>ActivityDefinition/H2Q-MC-LZZT-Adverse-events</code></p></blockquote></div>"
        },
        "extension": [
          {
            "url": "http://example.org/br-and-r/soa/StructureDefinition/planned-visit-study-day",
            "valueInteger": 42
          }
        ],
        "identifier": [
          {
            "value": "VISIT-7"
          },
          {
            "use": "secondary",
            "type": {
              "coding": [
                {
                  "system": "http://www.cdisc.org/ns/odm/v1.3#",
                  "display": "OID"
                }
              ]
            },
            "system": "http://www.cdisc.org/ns/odm/v1.3/StudyDef#",
            "value": "SE.TRT_VISIT_04"
          }
        ],
        "status": "active",
        "action": [
          {
            "title": "Record Visit Date",
            "definitionUri": "ActivityDefinition/H2Q-MC-LZZT-Visit-Date"
          },
          {
            "title": "Vital signs/Temperature ",
            "definitionUri": "ActivityDefinition/H2Q-MC-LZZT-Vital-signs/Temperature"
          },
          {
            "title": "ECG ",
            "definitionUri": "ActivityDefinition/H2Q-MC-LZZT-ECG"
          },
          {
            "title": "Concomitant Medications ",
            "definitionUri": "ActivityDefinition/H2Q-MC-LZZT-Concomitant-Medications"
          },
          {
            "title": "Laboratory (Chem/Hemat)",
            "definitionUri": "ActivityDefinition/H2Q-MC-LZZT-Laboratory-(Chem/Hemat)"
          },
          {
            "title": "Plasma Specimen ",
            "definitionUri": "ActivityDefinition/H2Q-MC-LZZT-Plasma-Specimen"
          },
          {
            "title": "Study drug record ",
            "definitionUri": "ActivityDefinition/H2Q-MC-LZZT-Study-drug-record"
          },
          {
            "title": "NPI-X ",
            "definitionUri": "ActivityDefinition/H2Q-MC-LZZT-NPI-X"
          },
          {
            "title": "Adverse events ",
            "definitionUri": "ActivityDefinition/H2Q-MC-LZZT-Adverse-events"
          }
        ]
      },
      "request": {
        "method": "POST",
        "url": "PlanDefinition"
      }
    },
    {
      "resource": {
        "resourceType": "PlanDefinition",
        "id": "H2Q-MC-LZZT-Study-Visit-8",
        "meta": {
          "profile": [
            "http://example.org/br-and-r/soa/StructureDefinition/SOA-PlanDefinition"
          ]
        },
        "text": {
          "status": "extensions",
          "div": "<div xmlns=\"http://www.w3.org/1999/xhtml\"><p><b>Generated Narrative</b></p><p><b>Planned Study Day of Visit</b>: 56</p><p><b>identifier</b>: id: VISIT-8, OID: SE.TRT_VISIT_05 (SECONDARY)</p><p><b>status</b>: active</p><blockquote><p><b>action</b></p><p><b>title</b>: Record Visit Date</p><p><b>definition</b>: <code>ActivityDefinition/H2Q-MC-LZZT-Visit-Date</code></p></blockquote><blockquote><p><b>action</b></p><p><b>title</b>: Vital signs/Temperature </p><p><b>definition</b>: <code>ActivityDefinition/H2Q-MC-LZZT-Vital-signs/Temperature</code></p></blockquote><blockquote><p><b>action</b></p><p><b>title</b>: ECG </p><p><b>definition</b>: <code>ActivityDefinition/H2Q-MC-LZZT-ECG</code></p></blockquote><blockquote><p><b>action</b></p><p><b>title</b>: Concomitant Medications </p><p><b>definition</b>: <code>ActivityDefinition/H2Q-MC-LZZT-Concomitant-Medications</code></p></blockquote><blockquote><p><b>action</b></p><p><b>title</b>: Laboratory (Chem/Hemat)</p><p><b>definition</b>: <code>ActivityDefinition/H2Q-MC-LZZT-Laboratory-(Chem/Hemat)</code></p></blockquote><blockquote><p><b>action</b></p><p><b>title</b>: Study drug record </p><p><b>definition</b>: <code>ActivityDefinition/H2Q-MC-LZZT-Study-drug-record</code></p></blockquote><blockquote><p><b>action</b></p><p><b>title</b>: ADAS-Cog </p><p><b>definition</b>: <code>ActivityDefinition/H2Q-MC-LZZT-ADAS-Cog</code></p></blockquote><blockquote><p><b>action</b></p><p><b>title</b>: CIBIC+ </p><p><b>definition</b>: <code>ActivityDefinition/H2Q-MC-LZZT-CIBIC+</code></p></blockquote><blockquote><p><b>action</b></p><p><b>title</b>: DAD </p><p><b>definition</b>: <code>ActivityDefinition/H2Q-MC-LZZT-DAD</code></p></blockquote><blockquote><p><b>action</b></p><p><b>title</b>: NPI-X </p><p><b>definition</b>: <code>ActivityDefinition/H2Q-MC-LZZT-NPI-X</code></p></blockquote><blockquote><p><b>action</b></p><p><b>title</b>: Adverse events </p><p><b>definition</b>: <code>ActivityDefinition/H2Q-MC-LZZT-Adverse-events</code></p></blockquote></div>"
        },
        "extension": [
          {
            "url": "http://example.org/br-and-r/soa/StructureDefinition/planned-visit-study-day",
            "valueInteger": 56
          }
        ],
        "identifier": [
          {
            "value": "VISIT-8"
          },
          {
            "use": "secondary",
            "type": {
              "coding": [
                {
                  "system": "http://www.cdisc.org/ns/odm/v1.3#",
                  "display": "OID"
                }
              ]
            },
            "system": "http://www.cdisc.org/ns/odm/v1.3/StudyDef#",
            "value": "SE.TRT_VISIT_05"
          }
        ],
        "status": "active",
        "action": [
          {
            "title": "Record Visit Date",
            "definitionUri": "ActivityDefinition/H2Q-MC-LZZT-Visit-Date"
          },
          {
            "title": "Vital signs/Temperature ",
            "definitionUri": "ActivityDefinition/H2Q-MC-LZZT-Vital-signs/Temperature"
          },
          {
            "title": "ECG ",
            "definitionUri": "ActivityDefinition/H2Q-MC-LZZT-ECG"
          },
          {
            "title": "Concomitant Medications ",
            "definitionUri": "ActivityDefinition/H2Q-MC-LZZT-Concomitant-Medications"
          },
          {
            "title": "Laboratory (Chem/Hemat)",
            "definitionUri": "ActivityDefinition/H2Q-MC-LZZT-Laboratory-(Chem/Hemat)"
          },
          {
            "title": "Study drug record ",
            "definitionUri": "ActivityDefinition/H2Q-MC-LZZT-Study-drug-record"
          },
          {
            "title": "ADAS-Cog ",
            "definitionUri": "ActivityDefinition/H2Q-MC-LZZT-ADAS-Cog"
          },
          {
            "title": "CIBIC+ ",
            "definitionUri": "ActivityDefinition/H2Q-MC-LZZT-CIBIC+"
          },
          {
            "title": "DAD ",
            "definitionUri": "ActivityDefinition/H2Q-MC-LZZT-DAD"
          },
          {
            "title": "NPI-X ",
            "definitionUri": "ActivityDefinition/H2Q-MC-LZZT-NPI-X"
          },
          {
            "title": "Adverse events ",
            "definitionUri": "ActivityDefinition/H2Q-MC-LZZT-Adverse-events"
          }
        ]
      },
      "request": {
        "method": "POST",
        "url": "PlanDefinition"
      }
    },
    {
      "resource": {
        "resourceType": "PlanDefinition",
        "id": "H2Q-MC-LZZT-Study-Visit-9",
        "meta": {
          "profile": [
            "http://example.org/br-and-r/soa/StructureDefinition/SOA-PlanDefinition"
          ]
        },
        "text": {
          "status": "extensions",
          "div": "<div xmlns=\"http://www.w3.org/1999/xhtml\"><p><b>Generated Narrative</b></p><p><b>Planned Study Day of Visit</b>: 84</p><p><b>identifier</b>: id: VISIT-9, OID: SE.TRT_VISIT_06 (SECONDARY)</p><p><b>type</b>: <span title=\"Codes: \">clinical-protocol</span></p><p><b>status</b>: retired</p><blockquote><p><b>action</b></p><p><b>title</b>: Record Visit Date</p><p><b>definition</b>: <code>ActivityDefinition/H2Q-MC-LZZT-Visit-Date</code></p></blockquote><blockquote><p><b>action</b></p><p><b>title</b>: Vital signs/Temperature </p><p><b>definition</b>: <code>ActivityDefinition/H2Q-MC-LZZT-Vital-signs/Temperature</code></p></blockquote><blockquote><p><b>action</b></p><p><b>title</b>: ECG </p><p><b>definition</b>: <code>ActivityDefinition/H2Q-MC-LZZT-ECG</code></p></blockquote><blockquote><p><b>action</b></p><p><b>title</b>: Concomitant Medications </p><p><b>definition</b>: <code>ActivityDefinition/H2Q-MC-LZZT-Concomitant-Medications</code></p></blockquote><blockquote><p><b>action</b></p><p><b>title</b>: Laboratory (Chem/Hemat)</p><p><b>definition</b>: <code>ActivityDefinition/H2Q-MC-LZZT-Laboratory-(Chem/Hemat)</code></p></blockquote><blockquote><p><b>action</b></p><p><b>title</b>: Laboratory (Urinalysis) </p><p><b>definition</b>: <code>ActivityDefinition/H2Q-MC-LZZT-Laboratory-(Urinalysis)</code></p></blockquote><blockquote><p><b>action</b></p><p><b>title</b>: Plasma Specimen </p><p><b>definition</b>: <code>ActivityDefinition/H2Q-MC-LZZT-Plasma-Specimen</code></p></blockquote><blockquote><p><b>action</b></p><p><b>title</b>: Study drug record </p><p><b>definition</b>: <code>ActivityDefinition/H2Q-MC-LZZT-Study-drug-record</code></p></blockquote><blockquote><p><b>action</b></p><p><b>title</b>: TTS Acceptability Survey</p><p><b>definition</b>: <code>ActivityDefinition/H2Q-MC-LZZT-TTS-Acceptability-Survey</code></p></blockquote><blockquote><p><b>action</b></p><p><b>title</b>: ADAS-Cog </p><p><b>definition</b>: <code>ActivityDefinition/H2Q-MC-LZZT-ADAS-Cog</code></p></blockquote><blockquote><p><b>action</b></p><p><b>title</b>: CIBIC+ </p><p><b>definition</b>: <code>ActivityDefinition/H2Q-MC-LZZT-CIBIC+</code></p></blockquote><blockquote><p><b>action</b></p><p><b>title</b>: DAD </p><p><b>definition</b>: <code>ActivityDefinition/H2Q-MC-LZZT-DAD</code></p></blockquote><blockquote><p><b>action</b></p><p><b>title</b>: NPI-X </p><p><b>definition</b>: <code>ActivityDefinition/H2Q-MC-LZZT-NPI-X</code></p></blockquote><blockquote><p><b>action</b></p><p><b>title</b>: Adverse events </p><p><b>definition</b>: <code>ActivityDefinition/H2Q-MC-LZZT-Adverse-events</code></p></blockquote></div>"
        },
        "extension": [
          {
            "url": "http://example.org/br-and-r/soa/StructureDefinition/planned-visit-study-day",
            "valueInteger": 84
          }
        ],
        "identifier": [
          {
            "value": "VISIT-9"
          },
          {
            "use": "secondary",
            "type": {
              "coding": [
                {
                  "system": "http://www.cdisc.org/ns/odm/v1.3#",
                  "display": "OID"
                }
              ]
            },
            "system": "http://www.cdisc.org/ns/odm/v1.3/StudyDef#",
            "value": "SE.TRT_VISIT_06"
          }
        ],
        "type": {
          "coding": [
            {
              "code": "clinical-protocol"
            }
          ]
        },
        "status": "retired",
        "action": [
          {
            "title": "Record Visit Date",
            "definitionUri": "ActivityDefinition/H2Q-MC-LZZT-Visit-Date"
          },
          {
            "title": "Vital signs/Temperature ",
            "definitionUri": "ActivityDefinition/H2Q-MC-LZZT-Vital-signs/Temperature"
          },
          {
            "title": "ECG ",
            "definitionUri": "ActivityDefinition/H2Q-MC-LZZT-ECG"
          },
          {
            "title": "Concomitant Medications ",
            "definitionUri": "ActivityDefinition/H2Q-MC-LZZT-Concomitant-Medications"
          },
          {
            "title": "Laboratory (Chem/Hemat)",
            "definitionUri": "ActivityDefinition/H2Q-MC-LZZT-Laboratory-(Chem/Hemat)"
          },
          {
            "title": "Laboratory (Urinalysis) ",
            "definitionUri": "ActivityDefinition/H2Q-MC-LZZT-Laboratory-(Urinalysis)"
          },
          {
            "title": "Plasma Specimen ",
            "definitionUri": "ActivityDefinition/H2Q-MC-LZZT-Plasma-Specimen"
          },
          {
            "title": "Study drug record ",
            "definitionUri": "ActivityDefinition/H2Q-MC-LZZT-Study-drug-record"
          },
          {
            "title": "TTS Acceptability Survey",
            "definitionUri": "ActivityDefinition/H2Q-MC-LZZT-TTS-Acceptability-Survey"
          },
          {
            "title": "ADAS-Cog ",
            "definitionUri": "ActivityDefinition/H2Q-MC-LZZT-ADAS-Cog"
          },
          {
            "title": "CIBIC+ ",
            "definitionUri": "ActivityDefinition/H2Q-MC-LZZT-CIBIC+"
          },
          {
            "title": "DAD ",
            "definitionUri": "ActivityDefinition/H2Q-MC-LZZT-DAD"
          },
          {
            "title": "NPI-X ",
            "definitionUri": "ActivityDefinition/H2Q-MC-LZZT-NPI-X"
          },
          {
            "title": "Adverse events ",
            "definitionUri": "ActivityDefinition/H2Q-MC-LZZT-Adverse-events"
          }
        ]
      },
      "request": {
        "method": "POST",
        "url": "PlanDefinition"
      }
    },
    {
      "resource": {
        "resourceType": "PlanDefinition",
        "id": "H2Q-MC-LZZT-Study-Visit-10",
        "meta": {
          "profile": [
            "http://example.org/br-and-r/soa/StructureDefinition/SOA-PlanDefinition"
          ]
        },
        "text": {
          "status": "extensions",
          "div": "<div xmlns=\"http://www.w3.org/1999/xhtml\"><p><b>Generated Narrative</b></p><p><b>Planned Study Day of Visit</b>: 112</p><p><b>identifier</b>: id: VISIT-10, OID: SE.TRT_VISIT_07 (SECONDARY)</p><p><b>status</b>: active</p><blockquote><p><b>action</b></p><p><b>title</b>: Record Visit Date</p><p><b>definition</b>: <code>ActivityDefinition/H2Q-MC-LZZT-Visit-Date</code></p></blockquote><blockquote><p><b>action</b></p><p><b>title</b>: Vital signs/Temperature </p><p><b>definition</b>: <code>ActivityDefinition/H2Q-MC-LZZT-Vital-signs/Temperature</code></p></blockquote><blockquote><p><b>action</b></p><p><b>title</b>: ECG </p><p><b>definition</b>: <code>ActivityDefinition/H2Q-MC-LZZT-ECG</code></p></blockquote><blockquote><p><b>action</b></p><p><b>title</b>: Concomitant Medications </p><p><b>definition</b>: <code>ActivityDefinition/H2Q-MC-LZZT-Concomitant-Medications</code></p></blockquote><blockquote><p><b>action</b></p><p><b>title</b>: Laboratory (Chem/Hemat)</p><p><b>definition</b>: <code>ActivityDefinition/H2Q-MC-LZZT-Laboratory-(Chem/Hemat)</code></p></blockquote><blockquote><p><b>action</b></p><p><b>title</b>: Laboratory (Urinalysis) </p><p><b>definition</b>: <code>ActivityDefinition/H2Q-MC-LZZT-Laboratory-(Urinalysis)</code></p></blockquote><blockquote><p><b>action</b></p><p><b>title</b>: Plasma Specimen </p><p><b>definition</b>: <code>ActivityDefinition/H2Q-MC-LZZT-Plasma-Specimen</code></p></blockquote><blockquote><p><b>action</b></p><p><b>title</b>: Study drug record </p><p><b>definition</b>: <code>ActivityDefinition/H2Q-MC-LZZT-Study-drug-record</code></p></blockquote><blockquote><p><b>action</b></p><p><b>title</b>: TTS Acceptability Survey</p><p><b>definition</b>: <code>ActivityDefinition/H2Q-MC-LZZT-TTS-Acceptability-Survey</code></p></blockquote><blockquote><p><b>action</b></p><p><b>title</b>: ADAS-Cog </p><p><b>definition</b>: <code>ActivityDefinition/H2Q-MC-LZZT-ADAS-Cog</code></p></blockquote><blockquote><p><b>action</b></p><p><b>title</b>: CIBIC+ </p><p><b>definition</b>: <code>ActivityDefinition/H2Q-MC-LZZT-CIBIC+</code></p></blockquote><blockquote><p><b>action</b></p><p><b>title</b>: DAD </p><p><b>definition</b>: <code>ActivityDefinition/H2Q-MC-LZZT-DAD</code></p></blockquote><blockquote><p><b>action</b></p><p><b>title</b>: NPI-X </p><p><b>definition</b>: <code>ActivityDefinition/H2Q-MC-LZZT-NPI-X</code></p></blockquote><blockquote><p><b>action</b></p><p><b>title</b>: Adverse events </p><p><b>definition</b>: <code>ActivityDefinition/H2Q-MC-LZZT-Adverse-events</code></p></blockquote></div>"
        },
        "extension": [
          {
            "url": "http://example.org/br-and-r/soa/StructureDefinition/planned-visit-study-day",
            "valueInteger": 112
          }
        ],
        "identifier": [
          {
            "value": "VISIT-10"
          },
          {
            "use": "secondary",
            "type": {
              "coding": [
                {
                  "system": "http://www.cdisc.org/ns/odm/v1.3#",
                  "display": "OID"
                }
              ]
            },
            "system": "http://www.cdisc.org/ns/odm/v1.3/StudyDef#",
            "value": "SE.TRT_VISIT_07"
          }
        ],
        "status": "active",
        "action": [
          {
            "title": "Record Visit Date",
            "definitionUri": "ActivityDefinition/H2Q-MC-LZZT-Visit-Date"
          },
          {
            "title": "Vital signs/Temperature ",
            "definitionUri": "ActivityDefinition/H2Q-MC-LZZT-Vital-signs/Temperature"
          },
          {
            "title": "ECG ",
            "definitionUri": "ActivityDefinition/H2Q-MC-LZZT-ECG"
          },
          {
            "title": "Concomitant Medications ",
            "definitionUri": "ActivityDefinition/H2Q-MC-LZZT-Concomitant-Medications"
          },
          {
            "title": "Laboratory (Chem/Hemat)",
            "definitionUri": "ActivityDefinition/H2Q-MC-LZZT-Laboratory-(Chem/Hemat)"
          },
          {
            "title": "Laboratory (Urinalysis) ",
            "definitionUri": "ActivityDefinition/H2Q-MC-LZZT-Laboratory-(Urinalysis)"
          },
          {
            "title": "Plasma Specimen ",
            "definitionUri": "ActivityDefinition/H2Q-MC-LZZT-Plasma-Specimen"
          },
          {
            "title": "Study drug record ",
            "definitionUri": "ActivityDefinition/H2Q-MC-LZZT-Study-drug-record"
          },
          {
            "title": "TTS Acceptability Survey",
            "definitionUri": "ActivityDefinition/H2Q-MC-LZZT-TTS-Acceptability-Survey"
          },
          {
            "title": "ADAS-Cog ",
            "definitionUri": "ActivityDefinition/H2Q-MC-LZZT-ADAS-Cog"
          },
          {
            "title": "CIBIC+ ",
            "definitionUri": "ActivityDefinition/H2Q-MC-LZZT-CIBIC+"
          },
          {
            "title": "DAD ",
            "definitionUri": "ActivityDefinition/H2Q-MC-LZZT-DAD"
          },
          {
            "title": "NPI-X ",
            "definitionUri": "ActivityDefinition/H2Q-MC-LZZT-NPI-X"
          },
          {
            "title": "Adverse events ",
            "definitionUri": "ActivityDefinition/H2Q-MC-LZZT-Adverse-events"
          }
        ]
      },
      "request": {
        "method": "POST",
        "url": "PlanDefinition"
      }
    },
    {
      "resource": {
        "resourceType": "PlanDefinition",
        "id": "H2Q-MC-LZZT-Study-Visit-11",
        "meta": {
          "profile": [
            "http://example.org/br-and-r/soa/StructureDefinition/SOA-PlanDefinition"
          ]
        },
        "text": {
          "status": "extensions",
          "div": "<div xmlns=\"http://www.w3.org/1999/xhtml\"><p><b>Generated Narrative</b></p><p><b>Planned Study Day of Visit</b>: 140</p><p><b>identifier</b>: id: VISIT-11, OID: SE.TRT_VISIT_08 (SECONDARY)</p><p><b>status</b>: active</p><blockquote><p><b>action</b></p><p><b>title</b>: Record Visit Date</p><p><b>definition</b>: <code>ActivityDefinition/H2Q-MC-LZZT-Visit-Date</code></p></blockquote><blockquote><p><b>action</b></p><p><b>title</b>: Vital signs/Temperature </p><p><b>definition</b>: <code>ActivityDefinition/H2Q-MC-LZZT-Vital-signs/Temperature</code></p></blockquote><blockquote><p><b>action</b></p><p><b>title</b>: ECG </p><p><b>definition</b>: <code>ActivityDefinition/H2Q-MC-LZZT-ECG</code></p></blockquote><blockquote><p><b>action</b></p><p><b>title</b>: Concomitant Medications </p><p><b>definition</b>: <code>ActivityDefinition/H2Q-MC-LZZT-Concomitant-Medications</code></p></blockquote><blockquote><p><b>action</b></p><p><b>title</b>: Laboratory (Chem/Hemat)</p><p><b>definition</b>: <code>ActivityDefinition/H2Q-MC-LZZT-Laboratory-(Chem/Hemat)</code></p></blockquote><blockquote><p><b>action</b></p><p><b>title</b>: Laboratory (Urinalysis) </p><p><b>definition</b>: <code>ActivityDefinition/H2Q-MC-LZZT-Laboratory-(Urinalysis)</code></p></blockquote><blockquote><p><b>action</b></p><p><b>title</b>: Plasma Specimen </p><p><b>definition</b>: <code>ActivityDefinition/H2Q-MC-LZZT-Plasma-Specimen</code></p></blockquote><blockquote><p><b>action</b></p><p><b>title</b>: Study drug record </p><p><b>definition</b>: <code>ActivityDefinition/H2Q-MC-LZZT-Study-drug-record</code></p></blockquote><blockquote><p><b>action</b></p><p><b>title</b>: ADAS-Cog </p><p><b>definition</b>: <code>ActivityDefinition/H2Q-MC-LZZT-ADAS-Cog</code></p></blockquote><blockquote><p><b>action</b></p><p><b>title</b>: CIBIC+ </p><p><b>definition</b>: <code>ActivityDefinition/H2Q-MC-LZZT-CIBIC+</code></p></blockquote><blockquote><p><b>action</b></p><p><b>title</b>: DAD </p><p><b>definition</b>: <code>ActivityDefinition/H2Q-MC-LZZT-DAD</code></p></blockquote><blockquote><p><b>action</b></p><p><b>title</b>: NPI-X </p><p><b>definition</b>: <code>ActivityDefinition/H2Q-MC-LZZT-NPI-X</code></p></blockquote><blockquote><p><b>action</b></p><p><b>title</b>: Adverse events </p><p><b>definition</b>: <code>ActivityDefinition/H2Q-MC-LZZT-Adverse-events</code></p></blockquote></div>"
        },
        "extension": [
          {
            "url": "http://example.org/br-and-r/soa/StructureDefinition/planned-visit-study-day",
            "valueInteger": 140
          }
        ],
        "identifier": [
          {
            "value": "VISIT-11"
          },
          {
            "use": "secondary",
            "type": {
              "coding": [
                {
                  "system": "http://www.cdisc.org/ns/odm/v1.3#",
                  "display": "OID"
                }
              ]
            },
            "system": "http://www.cdisc.org/ns/odm/v1.3/StudyDef#",
            "value": "SE.TRT_VISIT_08"
          }
        ],
        "status": "active",
        "action": [
          {
            "title": "Record Visit Date",
            "definitionUri": "ActivityDefinition/H2Q-MC-LZZT-Visit-Date"
          },
          {
            "title": "Vital signs/Temperature ",
            "definitionUri": "ActivityDefinition/H2Q-MC-LZZT-Vital-signs/Temperature"
          },
          {
            "title": "ECG ",
            "definitionUri": "ActivityDefinition/H2Q-MC-LZZT-ECG"
          },
          {
            "title": "Concomitant Medications ",
            "definitionUri": "ActivityDefinition/H2Q-MC-LZZT-Concomitant-Medications"
          },
          {
            "title": "Laboratory (Chem/Hemat)",
            "definitionUri": "ActivityDefinition/H2Q-MC-LZZT-Laboratory-(Chem/Hemat)"
          },
          {
            "title": "Laboratory (Urinalysis) ",
            "definitionUri": "ActivityDefinition/H2Q-MC-LZZT-Laboratory-(Urinalysis)"
          },
          {
            "title": "Plasma Specimen ",
            "definitionUri": "ActivityDefinition/H2Q-MC-LZZT-Plasma-Specimen"
          },
          {
            "title": "Study drug record ",
            "definitionUri": "ActivityDefinition/H2Q-MC-LZZT-Study-drug-record"
          },
          {
            "title": "ADAS-Cog ",
            "definitionUri": "ActivityDefinition/H2Q-MC-LZZT-ADAS-Cog"
          },
          {
            "title": "CIBIC+ ",
            "definitionUri": "ActivityDefinition/H2Q-MC-LZZT-CIBIC+"
          },
          {
            "title": "DAD ",
            "definitionUri": "ActivityDefinition/H2Q-MC-LZZT-DAD"
          },
          {
            "title": "NPI-X ",
            "definitionUri": "ActivityDefinition/H2Q-MC-LZZT-NPI-X"
          },
          {
            "title": "Adverse events ",
            "definitionUri": "ActivityDefinition/H2Q-MC-LZZT-Adverse-events"
          }
        ]
      },
      "request": {
        "method": "POST",
        "url": "PlanDefinition"
      }
    },
    {
      "resource": {
        "resourceType": "PlanDefinition",
        "id": "H2Q-MC-LZZT-Study-Visit-12",
        "meta": {
          "profile": [
            "http://example.org/br-and-r/soa/StructureDefinition/SOA-PlanDefinition"
          ]
        },
        "text": {
          "status": "extensions",
          "div": "<div xmlns=\"http://www.w3.org/1999/xhtml\"><p><b>Generated Narrative</b></p><p><b>Planned Study Day of Visit</b>: 168</p><p><b>identifier</b>: id: VISIT-12, OID: SE.TRT_VISIT_09 (SECONDARY)</p><p><b>status</b>: active</p><blockquote><p><b>action</b></p><p><b>title</b>: Record Visit Date</p><p><b>definition</b>: <code>ActivityDefinition/H2Q-MC-LZZT-Visit-Date</code></p></blockquote><blockquote><p><b>action</b></p><p><b>title</b>: Vital signs/Temperature </p><p><b>definition</b>: <code>ActivityDefinition/H2Q-MC-LZZT-Vital-signs/Temperature</code></p></blockquote><blockquote><p><b>action</b></p><p><b>title</b>: ECG </p><p><b>definition</b>: <code>ActivityDefinition/H2Q-MC-LZZT-ECG</code></p></blockquote><blockquote><p><b>action</b></p><p><b>title</b>: Concomitant Medications </p><p><b>definition</b>: <code>ActivityDefinition/H2Q-MC-LZZT-Concomitant-Medications</code></p></blockquote><blockquote><p><b>action</b></p><p><b>title</b>: Laboratory (Chem/Hemat)</p><p><b>definition</b>: <code>ActivityDefinition/H2Q-MC-LZZT-Laboratory-(Chem/Hemat)</code></p></blockquote><blockquote><p><b>action</b></p><p><b>title</b>: Laboratory (Urinalysis) </p><p><b>definition</b>: <code>ActivityDefinition/H2Q-MC-LZZT-Laboratory-(Urinalysis)</code></p></blockquote><blockquote><p><b>action</b></p><p><b>title</b>: Study drug record </p><p><b>definition</b>: <code>ActivityDefinition/H2Q-MC-LZZT-Study-drug-record</code></p></blockquote><blockquote><p><b>action</b></p><p><b>title</b>: ADAS-Cog </p><p><b>definition</b>: <code>ActivityDefinition/H2Q-MC-LZZT-ADAS-Cog</code></p></blockquote><blockquote><p><b>action</b></p><p><b>title</b>: CIBIC+ </p><p><b>definition</b>: <code>ActivityDefinition/H2Q-MC-LZZT-CIBIC+</code></p></blockquote><blockquote><p><b>action</b></p><p><b>title</b>: DAD </p><p><b>definition</b>: <code>ActivityDefinition/H2Q-MC-LZZT-DAD</code></p></blockquote><blockquote><p><b>action</b></p><p><b>title</b>: NPI-X </p><p><b>definition</b>: <code>ActivityDefinition/H2Q-MC-LZZT-NPI-X</code></p></blockquote><blockquote><p><b>action</b></p><p><b>title</b>: Adverse events </p><p><b>definition</b>: <code>ActivityDefinition/H2Q-MC-LZZT-Adverse-events</code></p></blockquote></div>"
        },
        "extension": [
          {
            "url": "http://example.org/br-and-r/soa/StructureDefinition/planned-visit-study-day",
            "valueInteger": 168
          }
        ],
        "identifier": [
          {
            "value": "VISIT-12"
          },
          {
            "use": "secondary",
            "type": {
              "coding": [
                {
                  "system": "http://www.cdisc.org/ns/odm/v1.3#",
                  "display": "OID"
                }
              ]
            },
            "system": "http://www.cdisc.org/ns/odm/v1.3/StudyDef#",
            "value": "SE.TRT_VISIT_09"
          }
        ],
        "status": "active",
        "action": [
          {
            "title": "Record Visit Date",
            "definitionUri": "ActivityDefinition/H2Q-MC-LZZT-Visit-Date"
          },
          {
            "title": "Vital signs/Temperature ",
            "definitionUri": "ActivityDefinition/H2Q-MC-LZZT-Vital-signs/Temperature"
          },
          {
            "title": "ECG ",
            "definitionUri": "ActivityDefinition/H2Q-MC-LZZT-ECG"
          },
          {
            "title": "Concomitant Medications ",
            "definitionUri": "ActivityDefinition/H2Q-MC-LZZT-Concomitant-Medications"
          },
          {
            "title": "Laboratory (Chem/Hemat)",
            "definitionUri": "ActivityDefinition/H2Q-MC-LZZT-Laboratory-(Chem/Hemat)"
          },
          {
            "title": "Laboratory (Urinalysis) ",
            "definitionUri": "ActivityDefinition/H2Q-MC-LZZT-Laboratory-(Urinalysis)"
          },
          {
            "title": "Study drug record ",
            "definitionUri": "ActivityDefinition/H2Q-MC-LZZT-Study-drug-record"
          },
          {
            "title": "ADAS-Cog ",
            "definitionUri": "ActivityDefinition/H2Q-MC-LZZT-ADAS-Cog"
          },
          {
            "title": "CIBIC+ ",
            "definitionUri": "ActivityDefinition/H2Q-MC-LZZT-CIBIC+"
          },
          {
            "title": "DAD ",
            "definitionUri": "ActivityDefinition/H2Q-MC-LZZT-DAD"
          },
          {
            "title": "NPI-X ",
            "definitionUri": "ActivityDefinition/H2Q-MC-LZZT-NPI-X"
          },
          {
            "title": "Adverse events ",
            "definitionUri": "ActivityDefinition/H2Q-MC-LZZT-Adverse-events"
          }
        ]
      },
      "request": {
        "method": "POST",
        "url": "PlanDefinition"
      }
    },
    {
      "resource": {
        "resourceType": "PlanDefinition",
        "id": "H2Q-MC-LZZT-Study-Visit-13",
        "meta": {
          "profile": [
            "http://example.org/br-and-r/soa/StructureDefinition/SOA-PlanDefinition"
          ]
        },
        "text": {
          "status": "extensions",
          "div": "<div xmlns=\"http://www.w3.org/1999/xhtml\"><p><b>Generated Narrative</b></p><p><b>Planned Study Day of Visit</b>: 182</p><p><b>identifier</b>: PLAC: VISIT-13 (USUAL), OID: SE.TRT_VISIT_10 (SECONDARY)</p><p><b>status</b>: active</p><blockquote><p><b>action</b></p><p><b>title</b>: Record Visit Date</p><p><b>definition</b>: <code>ActivityDefinition/H2Q-MC-LZZT-Visit-Date</code></p></blockquote><blockquote><p><b>action</b></p><p><b>title</b>: Physical examination </p><p><b>definition</b>: <code>ActivityDefinition/H2Q-MC-LZZT-Physical-examination</code></p></blockquote><blockquote><p><b>action</b></p><p><b>title</b>: Vital signs/Temperature </p><p><b>definition</b>: <code>ActivityDefinition/H2Q-MC-LZZT-Vital-signs/Temperature</code></p></blockquote><blockquote><p><b>action</b></p><p><b>title</b>: ECG </p><p><b>definition</b>: <code>ActivityDefinition/H2Q-MC-LZZT-ECG</code></p></blockquote><blockquote><p><b>action</b></p><p><b>title</b>: Concomitant Medications </p><p><b>definition</b>: <code>ActivityDefinition/H2Q-MC-LZZT-Concomitant-Medications</code></p></blockquote><blockquote><p><b>action</b></p><p><b>title</b>: Laboratory (Chem/Hemat)</p><p><b>definition</b>: <code>ActivityDefinition/H2Q-MC-LZZT-Laboratory-(Chem/Hemat)</code></p></blockquote><blockquote><p><b>action</b></p><p><b>title</b>: Study drug record </p><p><b>definition</b>: <code>ActivityDefinition/H2Q-MC-LZZT-Study-drug-record</code></p></blockquote><blockquote><p><b>action</b></p><p><b>title</b>: TTS Acceptability Survey</p><p><b>definition</b>: <code>ActivityDefinition/H2Q-MC-LZZT-TTS-Acceptability-Survey</code></p></blockquote><blockquote><p><b>action</b></p><p><b>title</b>: NPI-X </p><p><b>definition</b>: <code>ActivityDefinition/H2Q-MC-LZZT-NPI-X</code></p></blockquote><blockquote><p><b>action</b></p><p><b>title</b>: Adverse events </p><p><b>definition</b>: <code>ActivityDefinition/H2Q-MC-LZZT-Adverse-events</code></p></blockquote></div>"
        },
        "extension": [
          {
            "url": "http://example.org/br-and-r/soa/StructureDefinition/planned-visit-study-day",
            "valueInteger": 182
          }
        ],
        "identifier": [
          {
            "use": "usual",
            "type": {
              "coding": [
                {
                  "code": "PLAC"
                }
              ]
            },
            "value": "VISIT-13"
          },
          {
            "use": "secondary",
            "type": {
              "coding": [
                {
                  "system": "http://www.cdisc.org/ns/odm/v1.3#",
                  "display": "OID"
                }
              ]
            },
            "system": "http://www.cdisc.org/ns/odm/v1.3/StudyDef#",
            "value": "SE.TRT_VISIT_10"
          }
        ],
        "status": "active",
        "action": [
          {
            "title": "Record Visit Date",
            "definitionUri": "ActivityDefinition/H2Q-MC-LZZT-Visit-Date"
          },
          {
            "title": "Physical examination ",
            "definitionUri": "ActivityDefinition/H2Q-MC-LZZT-Physical-examination"
          },
          {
            "title": "Vital signs/Temperature ",
            "definitionUri": "ActivityDefinition/H2Q-MC-LZZT-Vital-signs/Temperature"
          },
          {
            "title": "ECG ",
            "definitionUri": "ActivityDefinition/H2Q-MC-LZZT-ECG"
          },
          {
            "title": "Concomitant Medications ",
            "definitionUri": "ActivityDefinition/H2Q-MC-LZZT-Concomitant-Medications"
          },
          {
            "title": "Laboratory (Chem/Hemat)",
            "definitionUri": "ActivityDefinition/H2Q-MC-LZZT-Laboratory-(Chem/Hemat)"
          },
          {
            "title": "Study drug record ",
            "definitionUri": "ActivityDefinition/H2Q-MC-LZZT-Study-drug-record"
          },
          {
            "title": "TTS Acceptability Survey",
            "definitionUri": "ActivityDefinition/H2Q-MC-LZZT-TTS-Acceptability-Survey"
          },
          {
            "title": "NPI-X ",
            "definitionUri": "ActivityDefinition/H2Q-MC-LZZT-NPI-X"
          },
          {
            "title": "Adverse events ",
            "definitionUri": "ActivityDefinition/H2Q-MC-LZZT-Adverse-events"
          }
        ]
      },
      "request": {
        "method": "POST",
        "url": "PlanDefinition"
      }
    },
    {
      "resource": {
        "resourceType": "PlanDefinition",
        "id": "H2Q-MC-LZZT-Study-ET-14",
        "meta": {
          "profile": [
            "http://example.org/br-and-r/soa/StructureDefinition/SOA-PlanDefinition"
          ]
        },
        "text": {
          "status": "extensions",
          "div": "<div xmlns=\"http://www.w3.org/1999/xhtml\"><p><b>Generated Narrative</b></p><p><b>Planned Study Day of Visit</b>: 0</p><p><b>identifier</b>: PLAC: ET-14 (USUAL), OID: SE.EARLY_TERM_VISIT (SECONDARY)</p><p><b>status</b>: active</p><blockquote><p><b>action</b></p><p><b>title</b>: Record Visit Date</p><p><b>definition</b>: <code>ActivityDefinition/H2Q-MC-LZZT-Visit-Date</code></p></blockquote><blockquote><p><b>action</b></p><p><b>title</b>: ET</p><p><b>definition</b>: <code>ActivityDefinition/H2Q-MC-LZZT-ET</code></p></blockquote><blockquote><p><b>action</b></p><p><b>title</b>: Physical examination </p><p><b>definition</b>: <code>ActivityDefinition/H2Q-MC-LZZT-Physical-examination</code></p></blockquote><blockquote><p><b>action</b></p><p><b>title</b>: Vital signs/Temperature </p><p><b>definition</b>: <code>ActivityDefinition/H2Q-MC-LZZT-Vital-signs/Temperature</code></p></blockquote><blockquote><p><b>action</b></p><p><b>title</b>: ECG </p><p><b>definition</b>: <code>ActivityDefinition/H2Q-MC-LZZT-ECG</code></p></blockquote><blockquote><p><b>action</b></p><p><b>title</b>: Concomitant Medications </p><p><b>definition</b>: <code>ActivityDefinition/H2Q-MC-LZZT-Concomitant-Medications</code></p></blockquote><blockquote><p><b>action</b></p><p><b>title</b>: Laboratory (Chem/Hemat)</p><p><b>definition</b>: <code>ActivityDefinition/H2Q-MC-LZZT-Laboratory-(Chem/Hemat)</code></p></blockquote><blockquote><p><b>action</b></p><p><b>title</b>: Laboratory (Urinalysis) </p><p><b>definition</b>: <code>ActivityDefinition/H2Q-MC-LZZT-Laboratory-(Urinalysis)</code></p></blockquote><blockquote><p><b>action</b></p><p><b>title</b>: Study drug record </p><p><b>definition</b>: <code>ActivityDefinition/H2Q-MC-LZZT-Study-drug-record</code></p></blockquote><blockquote><p><b>action</b></p><p><b>title</b>: TTS Acceptability Survey</p><p><b>definition</b>: <code>ActivityDefinition/H2Q-MC-LZZT-TTS-Acceptability-Survey</code></p></blockquote><blockquote><p><b>action</b></p><p><b>title</b>: ADAS-Cog </p><p><b>definition</b>: <code>ActivityDefinition/H2Q-MC-LZZT-ADAS-Cog</code></p></blockquote><blockquote><p><b>action</b></p><p><b>title</b>: CIBIC+ </p><p><b>definition</b>: <code>ActivityDefinition/H2Q-MC-LZZT-CIBIC+</code></p></blockquote><blockquote><p><b>action</b></p><p><b>title</b>: DAD </p><p><b>definition</b>: <code>ActivityDefinition/H2Q-MC-LZZT-DAD</code></p></blockquote><blockquote><p><b>action</b></p><p><b>title</b>: NPI-X </p><p><b>definition</b>: <code>ActivityDefinition/H2Q-MC-LZZT-NPI-X</code></p></blockquote><blockquote><p><b>action</b></p><p><b>title</b>: Adverse events </p><p><b>definition</b>: <code>ActivityDefinition/H2Q-MC-LZZT-Adverse-events</code></p></blockquote></div>"
        },
        "extension": [
          {
            "url": "http://example.org/br-and-r/soa/StructureDefinition/planned-visit-study-day",
            "valueInteger": 0
          }
        ],
        "identifier": [
          {
            "use": "usual",
            "type": {
              "coding": [
                {
                  "code": "PLAC"
                }
              ]
            },
            "value": "ET-14"
          },
          {
            "use": "secondary",
            "type": {
              "coding": [
                {
                  "system": "http://www.cdisc.org/ns/odm/v1.3#",
                  "display": "OID"
                }
              ]
            },
            "system": "http://www.cdisc.org/ns/odm/v1.3/StudyDef#",
            "value": "SE.EARLY_TERM_VISIT"
          }
        ],
        "status": "active",
        "action": [
          {
            "title": "Record Visit Date",
            "definitionUri": "ActivityDefinition/H2Q-MC-LZZT-Visit-Date"
          },
          {
            "title": "ET",
            "definitionUri": "ActivityDefinition/H2Q-MC-LZZT-ET"
          },
          {
            "title": "Physical examination ",
            "definitionUri": "ActivityDefinition/H2Q-MC-LZZT-Physical-examination"
          },
          {
            "title": "Vital signs/Temperature ",
            "definitionUri": "ActivityDefinition/H2Q-MC-LZZT-Vital-signs/Temperature"
          },
          {
            "title": "ECG ",
            "definitionUri": "ActivityDefinition/H2Q-MC-LZZT-ECG"
          },
          {
            "title": "Concomitant Medications ",
            "definitionUri": "ActivityDefinition/H2Q-MC-LZZT-Concomitant-Medications"
          },
          {
            "title": "Laboratory (Chem/Hemat)",
            "definitionUri": "ActivityDefinition/H2Q-MC-LZZT-Laboratory-(Chem/Hemat)"
          },
          {
            "title": "Laboratory (Urinalysis) ",
            "definitionUri": "ActivityDefinition/H2Q-MC-LZZT-Laboratory-(Urinalysis)"
          },
          {
            "title": "Study drug record ",
            "definitionUri": "ActivityDefinition/H2Q-MC-LZZT-Study-drug-record"
          },
          {
            "title": "TTS Acceptability Survey",
            "definitionUri": "ActivityDefinition/H2Q-MC-LZZT-TTS-Acceptability-Survey"
          },
          {
            "title": "ADAS-Cog ",
            "definitionUri": "ActivityDefinition/H2Q-MC-LZZT-ADAS-Cog"
          },
          {
            "title": "CIBIC+ ",
            "definitionUri": "ActivityDefinition/H2Q-MC-LZZT-CIBIC+"
          },
          {
            "title": "DAD ",
            "definitionUri": "ActivityDefinition/H2Q-MC-LZZT-DAD"
          },
          {
            "title": "NPI-X ",
            "definitionUri": "ActivityDefinition/H2Q-MC-LZZT-NPI-X"
          },
          {
            "title": "Adverse events ",
            "definitionUri": "ActivityDefinition/H2Q-MC-LZZT-Adverse-events"
          }
        ]
      },
      "request": {
        "method": "POST",
        "url": "PlanDefinition"
      }
    },
    {
      "resource": {
        "resourceType": "PlanDefinition",
        "id": "H2Q-MC-LZZT-Study-RT-15",
        "meta": {
          "profile": [
            "http://example.org/br-and-r/soa/StructureDefinition/SOA-PlanDefinition"
          ]
        },
        "text": {
          "status": "extensions",
          "div": "<div xmlns=\"http://www.w3.org/1999/xhtml\"><p><b>Generated Narrative</b></p><p><b>Planned Study Day of Visit</b>: 0</p><p><b>identifier</b>: PLAC: RT-15 (USUAL), OID: SE.RETRIEVAL_TERM_VISIT (SECONDARY)</p><p><b>status</b>: active</p><blockquote><p><b>action</b></p><p><b>title</b>: Record Visit Date</p><p><b>definition</b>: <code>ActivityDefinition/H2Q-MC-LZZT-Visit-Date</code></p></blockquote><blockquote><p><b>action</b></p><p><b>title</b>: RT</p><p><b>definition</b>: <code>ActivityDefinition/H2Q-MC-LZZT-RT</code></p></blockquote><blockquote><p><b>action</b></p><p><b>title</b>: Vital signs/Temperature </p><p><b>definition</b>: <code>ActivityDefinition/H2Q-MC-LZZT-Vital-signs/Temperature</code></p></blockquote><blockquote><p><b>action</b></p><p><b>title</b>: Concomitant Medications </p><p><b>definition</b>: <code>ActivityDefinition/H2Q-MC-LZZT-Concomitant-Medications</code></p></blockquote><blockquote><p><b>action</b></p><p><b>title</b>: ADAS-Cog </p><p><b>definition</b>: <code>ActivityDefinition/H2Q-MC-LZZT-ADAS-Cog</code></p></blockquote><blockquote><p><b>action</b></p><p><b>title</b>: CIBIC+ </p><p><b>definition</b>: <code>ActivityDefinition/H2Q-MC-LZZT-CIBIC+</code></p></blockquote><blockquote><p><b>action</b></p><p><b>title</b>: DAD </p><p><b>definition</b>: <code>ActivityDefinition/H2Q-MC-LZZT-DAD</code></p></blockquote><blockquote><p><b>action</b></p><p><b>title</b>: NPI-X </p><p><b>definition</b>: <code>ActivityDefinition/H2Q-MC-LZZT-NPI-X</code></p></blockquote><blockquote><p><b>action</b></p><p><b>title</b>: Adverse events </p><p><b>definition</b>: <code>ActivityDefinition/H2Q-MC-LZZT-Adverse-events</code></p></blockquote></div>"
        },
        "extension": [
          {
            "url": "http://example.org/br-and-r/soa/StructureDefinition/planned-visit-study-day",
            "valueInteger": 0
          }
        ],
        "identifier": [
          {
            "use": "usual",
            "type": {
              "coding": [
                {
                  "code": "PLAC"
                }
              ]
            },
            "value": "RT-15"
          },
          {
            "use": "secondary",
            "type": {
              "coding": [
                {
                  "system": "http://www.cdisc.org/ns/odm/v1.3#",
                  "display": "OID"
                }
              ]
            },
            "system": "http://www.cdisc.org/ns/odm/v1.3/StudyDef#",
            "value": "SE.RETRIEVAL_TERM_VISIT"
          }
        ],
        "status": "active",
        "action": [
          {
            "title": "Record Visit Date",
            "definitionUri": "ActivityDefinition/H2Q-MC-LZZT-Visit-Date"
          },
          {
            "title": "RT",
            "definitionUri": "ActivityDefinition/H2Q-MC-LZZT-RT"
          },
          {
            "title": "Vital signs/Temperature ",
            "definitionUri": "ActivityDefinition/H2Q-MC-LZZT-Vital-signs/Temperature"
          },
          {
            "title": "Concomitant Medications ",
            "definitionUri": "ActivityDefinition/H2Q-MC-LZZT-Concomitant-Medications"
          },
          {
            "title": "ADAS-Cog ",
            "definitionUri": "ActivityDefinition/H2Q-MC-LZZT-ADAS-Cog"
          },
          {
            "title": "CIBIC+ ",
            "definitionUri": "ActivityDefinition/H2Q-MC-LZZT-CIBIC+"
          },
          {
            "title": "DAD ",
            "definitionUri": "ActivityDefinition/H2Q-MC-LZZT-DAD"
          },
          {
            "title": "NPI-X ",
            "definitionUri": "ActivityDefinition/H2Q-MC-LZZT-NPI-X"
          },
          {
            "title": "Adverse events ",
            "definitionUri": "ActivityDefinition/H2Q-MC-LZZT-Adverse-events"
          }
        ]
      },
      "request": {
        "method": "POST",
        "url": "PlanDefinition"
      }
    },
    {
      "resource": {
        "resourceType": "Group",
        "id": "H2Q-MC-LZZT-ResearchStudy-Inclusion",
        "text": {
          "status": "generated",
          "div": "<div xmlns=\"http://www.w3.org/1999/xhtml\"><p><b>Generated Narrative</b></p><p><b>type</b>: person</p><p><b>actual</b>: false</p><blockquote><p><b>characteristic</b></p><p><b>code</b>: <span title=\"Codes: \">Males and postmenopausal females at least 50 years of age.</span></p><p><b>value</b>: true</p><p><b>exclude</b>: false</p></blockquote><blockquote><p><b>characteristic</b></p><p><b>code</b>: <span title=\"Codes: \">Diagnosis of probable AD as defined by National Institute of Neurological and Communicative Disorders and Stroke (NINCDS) and the Alzheimers Disease and Related Disorders Association (ADRDA) guidelines</span></p><p><b>value</b>: true</p><p><b>exclude</b>: false</p></blockquote><blockquote><p><b>characteristic</b></p><p><b>code</b>: <span title=\"Codes: \">MMSE score of 10 to 23.</span></p><p><b>value</b>: true</p><p><b>exclude</b>: false</p></blockquote><blockquote><p><b>characteristic</b></p><p><b>code</b>: <span title=\"Codes: \">Hachinski Ischemic Scale score of 4</span></p><p><b>value</b>: true</p><p><b>exclude</b>: false</p></blockquote><blockquote><p><b>characteristic</b></p><p><b>code</b>: <span title=\"Codes: \">CNS imaging (CT scan or MRI of brain) compatible with AD within past 1 year.</span></p><p><b>value</b>: true</p><p><b>exclude</b>: false</p></blockquote><blockquote><p><b>characteristic</b></p><p><b>code</b>: <span title=\"Codes: \">Investigator has obtained informed consent signed by the patient (and/or legal representative) and by the caregiver.</span></p><p><b>value</b>: true</p><p><b>exclude</b>: false</p></blockquote><blockquote><p><b>characteristic</b></p><p><b>code</b>: <span title=\"Codes: \">Geographic proximity to investigators site that allows adequate follow-up.</span></p><p><b>value</b>: true</p><p><b>exclude</b>: false</p></blockquote><blockquote><p><b>characteristic</b></p><p><b>code</b>: <span title=\"Codes: \">A reliable caregiver who is in frequent or daily contact with the patient and who will accompany the patient to the office and/or be available by telephone at designated times, will monitor administration of prescribed medications, and will be responsible for the overall care of the patient at home. The caregiver and the patient must be able to communicate in English and willing to comply with 26 weeks of transdermal therapy.</span></p><p><b>value</b>: true</p><p><b>exclude</b>: false</p></blockquote></div>"
        },
        "type": "person",
        "actual": false,
        "characteristic": [
          {
            "code": {
              "text": "Males and postmenopausal females at least 50 years of age."
            },
            "valueBoolean": true,
            "exclude": false
          },
          {
            "code": {
              "text": "Diagnosis of probable AD as defined by National Institute of Neurological and Communicative Disorders and Stroke (NINCDS) and the Alzheimers Disease and Related Disorders Association (ADRDA) guidelines"
            },
            "valueBoolean": true,
            "exclude": false
          },
          {
            "code": {
              "text": "MMSE score of 10 to 23."
            },
            "valueBoolean": true,
            "exclude": false
          },
          {
            "code": {
              "text": "Hachinski Ischemic Scale score of 4"
            },
            "valueBoolean": true,
            "exclude": false
          },
          {
            "code": {
              "text": "CNS imaging (CT scan or MRI of brain) compatible with AD within past 1 year."
            },
            "valueBoolean": true,
            "exclude": false
          },
          {
            "code": {
              "text": "Investigator has obtained informed consent signed by the patient (and/or legal representative) and by the caregiver."
            },
            "valueBoolean": true,
            "exclude": false
          },
          {
            "code": {
              "text": "Geographic proximity to investigators site that allows adequate follow-up."
            },
            "valueBoolean": true,
            "exclude": false
          },
          {
            "code": {
              "text": "A reliable caregiver who is in frequent or daily contact with the patient and who will accompany the patient to the office and/or be available by telephone at designated times, will monitor administration of prescribed medications, and will be responsible for the overall care of the patient at home. The caregiver and the patient must be able to communicate in English and willing to comply with 26 weeks of transdermal therapy."
            },
            "valueBoolean": true,
            "exclude": false
          }
        ]
      },
      "request": {
        "method": "POST",
        "url": "Group"
      }
    },
    {
      "resource": {
        "resourceType": "Group",
        "id": "H2Q-MC-LZZT-ResearchStudy-Exclusion",
        "text": {
          "status": "generated",
          "div": "<div xmlns=\"http://www.w3.org/1999/xhtml\"><p><b>Generated Narrative</b></p><p><b>type</b>: person</p><p><b>actual</b>: false</p><blockquote><p><b>characteristic</b></p><p><b>code</b>: <span title=\"Codes: \">Persons who have previously completed or withdrawn from this study or any other study investigating xanomeline TTS or the oral formulation of xanomeline.</span></p><p><b>value</b>: true</p><p><b>exclude</b>: true</p></blockquote><blockquote><p><b>characteristic</b></p><p><b>code</b>: <span title=\"Codes: \">Use of any investigational agent or approved Alzheimers therapeutic medication within 30 days prior to enrollment into the study.</span></p><p><b>value</b>: true</p><p><b>exclude</b>: true</p></blockquote><blockquote><p><b>characteristic</b></p><p><b>code</b>: <span title=\"Codes: \">Serious illness which required hospitalization within 3 months of screening.</span></p><p><b>value</b>: true</p><p><b>exclude</b>: true</p></blockquote><blockquote><p><b>characteristic</b></p><p><b>code</b>: <span title=\"Codes: \">Stroke or vascular dementia documented by clinical history and/or radiographic findings interpretable by the investigator as indicative of these disorders</span></p><p><b>value</b>: true</p><p><b>exclude</b>: true</p></blockquote><blockquote><p><b>characteristic</b></p><p><b>code</b>: <span title=\"Codes: \">Seizure disorder other than simple childhood febrile seizures</span></p><p><b>value</b>: true</p><p><b>exclude</b>: true</p></blockquote><blockquote><p><b>characteristic</b></p><p><b>code</b>: <span title=\"Codes: \">Severe head trauma resulting in protracted loss of consciousness within the last 5 years, or multiple episodes of head trauma</span></p><p><b>value</b>: true</p><p><b>exclude</b>: true</p></blockquote><blockquote><p><b>characteristic</b></p><p><b>code</b>: <span title=\"Codes: \">Parkinsons disease</span></p><p><b>value</b>: true</p><p><b>exclude</b>: true</p></blockquote><blockquote><p><b>characteristic</b></p><p><b>code</b>: <span title=\"Codes: \">Multiple sclerosis</span></p><p><b>value</b>: true</p><p><b>exclude</b>: true</p></blockquote><blockquote><p><b>characteristic</b></p><p><b>code</b>: <span title=\"Codes: \">Amyotrophic lateral sclerosis</span></p><p><b>value</b>: true</p><p><b>exclude</b>: true</p></blockquote><blockquote><p><b>characteristic</b></p><p><b>code</b>: <span title=\"Codes: \">Myasthenia gravis</span></p><p><b>value</b>: true</p><p><b>exclude</b>: true</p></blockquote><blockquote><p><b>characteristic</b></p><p><b>code</b>: <span title=\"Codes: \">Episode of depression meeting DSM-IV criteria within 3 months of screening.</span></p><p><b>value</b>: true</p><p><b>exclude</b>: true</p></blockquote><blockquote><p><b>characteristic</b></p><p><b>code</b>: <span title=\"Codes: \">A history within the last 5 years of Schizophrenia.</span></p><p><b>value</b>: true</p><p><b>exclude</b>: true</p></blockquote><blockquote><p><b>characteristic</b></p><p><b>code</b>: <span title=\"Codes: \">A history within the last 5 years of Bipolar Disease.</span></p><p><b>value</b>: true</p><p><b>exclude</b>: true</p></blockquote><blockquote><p><b>characteristic</b></p><p><b>code</b>: <span title=\"Codes: \">A history within the last 5 years of Ethanol or psychoactive drug abuse or dependence.</span></p><p><b>value</b>: true</p><p><b>exclude</b>: true</p></blockquote><blockquote><p><b>characteristic</b></p><p><b>code</b>: <span title=\"Codes: \">A history of syncope within the last 5 years.</span></p><p><b>value</b>: true</p><p><b>exclude</b>: true</p></blockquote><blockquote><p><b>characteristic</b></p><p><b>code</b>: <span title=\"Codes: \">Evidence from ECG recording of Left bundle branch block.</span></p><p><b>value</b>: true</p><p><b>exclude</b>: true</p></blockquote><blockquote><p><b>characteristic</b></p><p><b>code</b>: <span title=\"Codes: \">Evidence from ECG recording of Bradycardia 50 beats per minute</span></p><p><b>value</b>: true</p><p><b>exclude</b>: true</p></blockquote><blockquote><p><b>characteristic</b></p><p><b>code</b>: <span title=\"Codes: \">Evidence from ECG recording of Sinus pauses &gt;2 seconds</span></p><p><b>value</b>: true</p><p><b>exclude</b>: true</p></blockquote><blockquote><p><b>characteristic</b></p><p><b>code</b>: <span title=\"Codes: \">Evidence from ECG recording of Second or third degree heart block unless treated with a pacemaker</span></p><p><b>value</b>: true</p><p><b>exclude</b>: true</p></blockquote><blockquote><p><b>characteristic</b></p><p><b>code</b>: <span title=\"Codes: \">Evidence from ECG recording of Wolff-Parkinson-White syndrome</span></p><p><b>value</b>: true</p><p><b>exclude</b>: true</p></blockquote><blockquote><p><b>characteristic</b></p><p><b>code</b>: <span title=\"Codes: \">Evidence from ECG recording of Sustained supraventricular tachyarrhythmia including SVT10 sec, atrial fibrillation, atrial flutter.</span></p><p><b>value</b>: true</p><p><b>exclude</b>: true</p></blockquote><blockquote><p><b>characteristic</b></p><p><b>code</b>: <span title=\"Codes: \">Evidence from ECG recording of Ventricular tachycardia at a rate of 120 beats per minute lasting 10 seconds.</span></p><p><b>value</b>: true</p><p><b>exclude</b>: true</p></blockquote><blockquote><p><b>characteristic</b></p><p><b>code</b>: <span title=\"Codes: \">A history within the last 5 years of Clinically significant arrhythmia</span></p><p><b>value</b>: true</p><p><b>exclude</b>: true</p></blockquote><blockquote><p><b>characteristic</b></p><p><b>code</b>: <span title=\"Codes: \">A history within the last 5 years of Symptomatic sick sinus syndrome not treated with a pacemaker</span></p><p><b>value</b>: true</p><p><b>exclude</b>: true</p></blockquote><blockquote><p><b>characteristic</b></p><p><b>code</b>: <span title=\"Codes: \">A history within the last 5 years of Congestive heart failure refractory to treatment</span></p><p><b>value</b>: true</p><p><b>exclude</b>: true</p></blockquote><blockquote><p><b>characteristic</b></p><p><b>code</b>: <span title=\"Codes: \">A history within the last 5 years of Angina except angina controlled with PRN nitroglycerin</span></p><p><b>value</b>: true</p><p><b>exclude</b>: true</p></blockquote><blockquote><p><b>characteristic</b></p><p><b>code</b>: <span title=\"Codes: \">A history within the last 5 years of Resting heart rate &lt;50 or &gt;100 beats per minute, on physical exam</span></p><p><b>value</b>: true</p><p><b>exclude</b>: true</p></blockquote><blockquote><p><b>characteristic</b></p><p><b>code</b>: <span title=\"Codes: \">A history within the last 5 years of Uncontrolled hypertension.</span></p><p><b>value</b>: true</p><p><b>exclude</b>: true</p></blockquote><blockquote><p><b>characteristic</b></p><p><b>code</b>: <span title=\"Codes: \">A history within the last 5 years of a serious gastrointestinal disorder</span></p><p><b>value</b>: true</p><p><b>exclude</b>: true</p></blockquote></div>"
        },
        "type": "person",
        "actual": false,
        "characteristic": [
          {
            "code": {
              "text": "Persons who have previously completed or withdrawn from this study or any other study investigating xanomeline TTS or the oral formulation of xanomeline."
            },
            "valueBoolean": true,
            "exclude": true
          },
          {
            "code": {
              "text": "Use of any investigational agent or approved Alzheimers therapeutic medication within 30 days prior to enrollment into the study."
            },
            "valueBoolean": true,
            "exclude": true
          },
          {
            "code": {
              "text": "Serious illness which required hospitalization within 3 months of screening."
            },
            "valueBoolean": true,
            "exclude": true
          },
          {
            "code": {
              "text": "Stroke or vascular dementia documented by clinical history and/or radiographic findings interpretable by the investigator as indicative of these disorders"
            },
            "valueBoolean": true,
            "exclude": true
          },
          {
            "code": {
              "text": "Seizure disorder other than simple childhood febrile seizures"
            },
            "valueBoolean": true,
            "exclude": true
          },
          {
            "code": {
              "text": "Severe head trauma resulting in protracted loss of consciousness within the last 5 years, or multiple episodes of head trauma"
            },
            "valueBoolean": true,
            "exclude": true
          },
          {
            "code": {
              "text": "Parkinsons disease"
            },
            "valueBoolean": true,
            "exclude": true
          },
          {
            "code": {
              "text": "Multiple sclerosis"
            },
            "valueBoolean": true,
            "exclude": true
          },
          {
            "code": {
              "text": "Amyotrophic lateral sclerosis"
            },
            "valueBoolean": true,
            "exclude": true
          },
          {
            "code": {
              "text": "Myasthenia gravis"
            },
            "valueBoolean": true,
            "exclude": true
          },
          {
            "code": {
              "text": "Episode of depression meeting DSM-IV criteria within 3 months of screening."
            },
            "valueBoolean": true,
            "exclude": true
          },
          {
            "code": {
              "text": "A history within the last 5 years of Schizophrenia."
            },
            "valueBoolean": true,
            "exclude": true
          },
          {
            "code": {
              "text": "A history within the last 5 years of Bipolar Disease."
            },
            "valueBoolean": true,
            "exclude": true
          },
          {
            "code": {
              "text": "A history within the last 5 years of Ethanol or psychoactive drug abuse or dependence."
            },
            "valueBoolean": true,
            "exclude": true
          },
          {
            "code": {
              "text": "A history of syncope within the last 5 years."
            },
            "valueBoolean": true,
            "exclude": true
          },
          {
            "code": {
              "text": "Evidence from ECG recording of Left bundle branch block."
            },
            "valueBoolean": true,
            "exclude": true
          },
          {
            "code": {
              "text": "Evidence from ECG recording of Bradycardia 50 beats per minute"
            },
            "valueBoolean": true,
            "exclude": true
          },
          {
            "code": {
              "text": "Evidence from ECG recording of Sinus pauses >2 seconds"
            },
            "valueBoolean": true,
            "exclude": true
          },
          {
            "code": {
              "text": "Evidence from ECG recording of Second or third degree heart block unless treated with a pacemaker"
            },
            "valueBoolean": true,
            "exclude": true
          },
          {
            "code": {
              "text": "Evidence from ECG recording of Wolff-Parkinson-White syndrome"
            },
            "valueBoolean": true,
            "exclude": true
          },
          {
            "code": {
              "text": "Evidence from ECG recording of Sustained supraventricular tachyarrhythmia including SVT10 sec, atrial fibrillation, atrial flutter."
            },
            "valueBoolean": true,
            "exclude": true
          },
          {
            "code": {
              "text": "Evidence from ECG recording of Ventricular tachycardia at a rate of 120 beats per minute lasting 10 seconds."
            },
            "valueBoolean": true,
            "exclude": true
          },
          {
            "code": {
              "text": "A history within the last 5 years of Clinically significant arrhythmia"
            },
            "valueBoolean": true,
            "exclude": true
          },
          {
            "code": {
              "text": "A history within the last 5 years of Symptomatic sick sinus syndrome not treated with a pacemaker"
            },
            "valueBoolean": true,
            "exclude": true
          },
          {
            "code": {
              "text": "A history within the last 5 years of Congestive heart failure refractory to treatment"
            },
            "valueBoolean": true,
            "exclude": true
          },
          {
            "code": {
              "text": "A history within the last 5 years of Angina except angina controlled with PRN nitroglycerin"
            },
            "valueBoolean": true,
            "exclude": true
          },
          {
            "code": {
              "text": "A history within the last 5 years of Resting heart rate <50 or >100 beats per minute, on physical exam"
            },
            "valueBoolean": true,
            "exclude": true
          },
          {
            "code": {
              "text": "A history within the last 5 years of Uncontrolled hypertension."
            },
            "valueBoolean": true,
            "exclude": true
          },
          {
            "code": {
              "text": "A history within the last 5 years of a serious gastrointestinal disorder"
            },
            "valueBoolean": true,
            "exclude": true
          }
        ]
      },
      "request": {
        "method": "POST",
        "url": "Group"
      }
    },
    {
      "fullUrl": "PlanDefinition/H2Q-MC-LZZT-ProtocolDesign",
      "resource": {
        "resourceType": "PlanDefinition",
        "id": "H2Q-MC-LZZT-ProtocolDesign",
        "meta": {
          "profile": [
            "http://example.org/br-and-r/soa/StructureDefinition/SOA-PlanDefinition"
          ]
        },
        "text": {
          "status": "generated",
          "div": "<div xmlns=\"http://www.w3.org/1999/xhtml\"><p><b>Generated Narrative</b></p><p><b>version</b>: LZZT_1</p><p><b>status</b>: active</p><blockquote><p><b>action</b></p><p><b>title</b>: Visit-1</p><p><b>description</b>: Planned Visit [Visit-1]</p><p><b>definition</b>: <code>PlanDefinition/H2Q-MC-LZZT-Study-Visit-1</code></p></blockquote><blockquote><p><b>action</b></p><p><b>title</b>: Visit-2</p><p><b>description</b>: Planned Visit [Visit-2]</p><p><b>definition</b>: <code>PlanDefinition/H2Q-MC-LZZT-Study-Visit-2</code></p></blockquote><blockquote><p><b>action</b></p><p><b>title</b>: Visit-3</p><p><b>description</b>: Planned Visit [Visit-3]</p><p><b>definition</b>: <code>PlanDefinition/H2Q-MC-LZZT-Study-Visit-3</code></p></blockquote><blockquote><p><b>action</b></p><p><b>title</b>: Visit-4</p><p><b>description</b>: Planned Visit [Visit-4]</p><p><b>definition</b>: <code>PlanDefinition/H2Q-MC-LZZT-Study-Visit-4</code></p></blockquote><blockquote><p><b>action</b></p><p><b>title</b>: Visit-5</p><p><b>description</b>: Planned Visit [Visit-5]</p><p><b>definition</b>: <code>PlanDefinition/H2Q-MC-LZZT-Study-Visit-5</code></p></blockquote><blockquote><p><b>action</b></p><p><b>title</b>: Visit-6</p><p><b>description</b>: Planned Visit [Visit-6]</p><p><b>definition</b>: <code>PlanDefinition/H2Q-MC-LZZT-Study-Visit-6</code></p></blockquote><blockquote><p><b>action</b></p><p><b>title</b>: Visit-7</p><p><b>description</b>: Planned Visit [Visit-7]</p><p><b>definition</b>: <code>PlanDefinition/H2Q-MC-LZZT-Study-Visit-7</code></p></blockquote><blockquote><p><b>action</b></p><p><b>title</b>: Visit-8</p><p><b>description</b>: Planned Visit [Visit-8]</p><p><b>definition</b>: <code>PlanDefinition/H2Q-MC-LZZT-Study-Visit-8</code></p></blockquote><blockquote><p><b>action</b></p><p><b>title</b>: Visit-9</p><p><b>description</b>: Planned Visit [Visit-9]</p><p><b>definition</b>: <code>PlanDefinition/H2Q-MC-LZZT-Study-Visit-9</code></p></blockquote><blockquote><p><b>action</b></p><p><b>title</b>: Visit-10</p><p><b>description</b>: Planned Visit [Visit-10]</p><p><b>definition</b>: <code>PlanDefinition/H2Q-MC-LZZT-Study-Visit-10</code></p></blockquote><blockquote><p><b>action</b></p><p><b>title</b>: Visit-11</p><p><b>description</b>: Planned Visit [Visit-11]</p><p><b>definition</b>: <code>PlanDefinition/H2Q-MC-LZZT-Study-Visit-11</code></p></blockquote><blockquote><p><b>action</b></p><p><b>title</b>: Visit-12</p><p><b>description</b>: Planned Visit [Visit-12]</p><p><b>definition</b>: <code>PlanDefinition/H2Q-MC-LZZT-Study-Visit-12</code></p></blockquote><blockquote><p><b>action</b></p><p><b>title</b>: Visit-13</p><p><b>description</b>: Planned Visit [Visit-13]</p><p><b>definition</b>: <code>PlanDefinition/H2Q-MC-LZZT-Study-Visit-13</code></p></blockquote><blockquote><p><b>action</b></p><p><b>title</b>: ET-14</p><p><b>description</b>: Planned Visit [ET-14]</p><p><b>definition</b>: <code>PlanDefinition/H2Q-MC-LZZT-Study-ET-14</code></p></blockquote><blockquote><p><b>action</b></p><p><b>title</b>: RT-15</p><p><b>description</b>: Planned Visit [RT-15]</p><p><b>definition</b>: <code>PlanDefinition/H2Q-MC-LZZT-Study-RT-15</code></p></blockquote></div>"
        },
        "version": "LZZT_1",
        "status": "active",
        "action": [
          {
            "title": "Visit-1",
            "description": "Planned Visit [Visit-1]",
            "definitionUri": "PlanDefinition/H2Q-MC-LZZT-Study-Visit-1"
          },
          {
            "title": "Visit-2",
            "description": "Planned Visit [Visit-2]",
            "definitionUri": "PlanDefinition/H2Q-MC-LZZT-Study-Visit-2"
          },
          {
            "title": "Visit-3",
            "description": "Planned Visit [Visit-3]",
            "definitionUri": "PlanDefinition/H2Q-MC-LZZT-Study-Visit-3"
          },
          {
            "title": "Visit-4",
            "description": "Planned Visit [Visit-4]",
            "definitionUri": "PlanDefinition/H2Q-MC-LZZT-Study-Visit-4"
          },
          {
            "title": "Visit-5",
            "description": "Planned Visit [Visit-5]",
            "definitionUri": "PlanDefinition/H2Q-MC-LZZT-Study-Visit-5"
          },
          {
            "title": "Visit-6",
            "description": "Planned Visit [Visit-6]",
            "definitionUri": "PlanDefinition/H2Q-MC-LZZT-Study-Visit-6"
          },
          {
            "title": "Visit-7",
            "description": "Planned Visit [Visit-7]",
            "definitionUri": "PlanDefinition/H2Q-MC-LZZT-Study-Visit-7"
          },
          {
            "title": "Visit-8",
            "description": "Planned Visit [Visit-8]",
            "definitionUri": "PlanDefinition/H2Q-MC-LZZT-Study-Visit-8"
          },
          {
            "title": "Visit-9",
            "description": "Planned Visit [Visit-9]",
            "definitionUri": "PlanDefinition/H2Q-MC-LZZT-Study-Visit-9"
          },
          {
            "title": "Visit-10",
            "description": "Planned Visit [Visit-10]",
            "definitionUri": "PlanDefinition/H2Q-MC-LZZT-Study-Visit-10"
          },
          {
            "title": "Visit-11",
            "description": "Planned Visit [Visit-11]",
            "definitionUri": "PlanDefinition/H2Q-MC-LZZT-Study-Visit-11"
          },
          {
            "title": "Visit-12",
            "description": "Planned Visit [Visit-12]",
            "definitionUri": "PlanDefinition/H2Q-MC-LZZT-Study-Visit-12"
          },
          {
            "title": "Visit-13",
            "description": "Planned Visit [Visit-13]",
            "definitionUri": "PlanDefinition/H2Q-MC-LZZT-Study-Visit-13"
          },
          {
            "title": "ET-14",
            "description": "Planned Visit [ET-14]",
            "definitionUri": "PlanDefinition/H2Q-MC-LZZT-Study-ET-14"
          },
          {
            "title": "RT-15",
            "description": "Planned Visit [RT-15]",
            "definitionUri": "PlanDefinition/H2Q-MC-LZZT-Study-RT-15"
          }
        ]
      },
      "request": {
        "method": "POST",
        "url": "PlanDefinition"
      }
    },
    {
      "fullUrl": "ResearchStudy/H2Q-MC-LZZT-ResearchStudy",
      "resource": {
        "resourceType": "ResearchStudy",
        "id": "H2Q-MC-LZZT-ResearchStudy",
        "text": {
          "status": "generated",
          "div": "<div xmlns=\"http://www.w3.org/1999/xhtml\"><p><b>Generated Narrative</b></p><p><b>identifier</b>: id: H2Q-MC-LZZT (USUAL), id: NCTA12313212 (OFFICIAL), PLAC: NCTA12313212 (SECONDARY), PUBCHEM: 60809</p><p><b>title</b>: Safety and Efficacy of the Xanomeline Transdermal Therapeutic System (TTS) in Patients with Mild to Moderate Alzheimers Disease</p><p><b>protocol</b>: <a href=\"#PlanDefinition_H2Q-MC-LZZT-ProtocolDesign\">See above (PlanDefinition/H2Q-MC-LZZT-ProtocolDesign)</a></p><p><b>status</b>: completed</p><p><b>primaryPurposeType</b>: <span title=\"Codes: \">treatment</span></p><p><b>phase</b>: <span title=\"Codes: \">phase-3</span></p><p><b>category</b>: <span title=\"Codes: {http://ncimeta.nci.nih.gov C98388}\">Interventional Study</span>, <span title=\"Codes: {http://ncimeta.nci.nih.gov C15417}\">Randomized Clinical Trial</span>, <span title=\"Codes: {http://ncimeta.nci.nih.gov C15228}\">Double Blind Study</span>, <span title=\"Codes: {http://ncimeta.nci.nih.gov C49648}\">Placebo Control</span>, <span title=\"Codes: {http://ncimeta.nci.nih.gov C82639}\">Parallel Study</span></p><p><b>focus</b>: <span title=\"Codes: {http://ncimeta.nci.nih.gov C152926}\">Xanomeline</span>, <span title=\"Codes: {http://ncimeta.nci.nih.gov C149996}\">Transdermal Patch Dosage Form</span>, <span title=\"Codes: {https://pubmed.ncbi.nlm.nih.gov 9109749}\">Effects of xanomeline, a selective muscarinic receptor agonist, on cognitive function and behavioral symptoms in Alzheimer disease</span></p><p><b>condition</b>: <span title=\"Codes: \">Alzheimer's Disease (Disorder)</span></p><p><b>contact</b>: Bob James, Ph.D.: ph: 555-555-5555(WORK)</p><h3>RelatedArtifacts</h3><table class=\"grid\"><tr><td>-</td></tr><tr><td>*</td></tr><tr><td>*</td></tr></table><p><b>keyword</b>: <span title=\"Codes: {https://id.nlm.nih.gov/mesh D018721}\">Selective M1 muscarinic agonists</span>, <span title=\"Codes: {https://id.nlm.nih.gov/mesh D000544}\">Alzheimer Disease</span>, <span title=\"Codes: {https://id.nlm.nih.gov/mesh D018721}\">Selective M1 muscarinic agonists</span></p><p><b>description</b>: ## Xanomeline (LY246708)\n### Protocol H2Q-MC-LZZT(c) \nSafety and Efficacy of the Xanomeline Transdermal Therapeutic System (TTS) in Patients with Mild to Moderate Alzheimers Disease</p><p><b>enrollment</b>: </p><ul><li><a href=\"#Group_H2Q-MC-LZZT-ResearchStudy-Inclusion\">See above (Group/H2Q-MC-LZZT-ResearchStudy-Inclusion)</a></li><li><a href=\"#Group_H2Q-MC-LZZT-ResearchStudy-Exclusion\">See above (Group/H2Q-MC-LZZT-ResearchStudy-Exclusion)</a></li></ul><p><b>sponsor</b>: <a href=\"Organization-EliLillyAndCompany.html\">Generated Summary: id: Eli Lilly and Company (OFFICIAL); <span title=\"Codes: \">crs</span></a></p><p><b>principalInvestigator</b>: <a href=\"Practitioner-SamGetWell.html\">Generated Summary: UPIN: ABC123 (OFFICIAL); active; Samuel Home ; Phone: 555-123-5467; gender: male</a></p><p><b>reasonStopped</b>: <span title=\"Codes: \">accrual-goal-met</span></p><blockquote><p><b>arm</b></p><p><b>name</b>: Placebo</p><p><b>type</b>: <span title=\"Codes: {http://ncimeta.nci.nih.gov C49648}\">C49648</span></p><p><b>description</b>: Placebo arm</p></blockquote><blockquote><p><b>arm</b></p><p><b>name</b>: Low-dose xanomeline arm</p><p><b>type</b>: <span title=\"Codes: {http://ncimeta.nci.nih.gov C174266}\">C174266</span></p><p><b>description</b>: Low-dose xanomeline arm (50 cm2 TTS Formulation E, 54 mg xanomeline)</p></blockquote><blockquote><p><b>arm</b></p><p><b>name</b>: High-dose xanomeline arm</p><p><b>type</b>: <span title=\"Codes: {http://ncimeta.nci.nih.gov C174266}\">C174266</span></p><p><b>description</b>: High-dose xanomeline arm (75 cm2 TTS Formulation E, 81 mg xanomeline)</p></blockquote><blockquote><p><b>objective</b></p><p><b>name</b>: To determine if there is a statistically significant relationship (overall Type 1 error rate, =.05) between the change in both ADAS-Cog and CIBIC+ scores, and drug dose (0, 50 cm2 [54 mg], and 75 cm2 [81 mg]).</p><p><b>type</b>: <span title=\"Codes: \">primary</span></p></blockquote><blockquote><p><b>objective</b></p><p><b>name</b>: To document the safety profile of the xanomeline TTS.</p><p><b>type</b>: <span title=\"Codes: \">primary</span></p></blockquote><blockquote><p><b>objective</b></p><p><b>name</b>: To assess the dose-dependent improvement in behavior. Improved scores on the Revised Neuropsychiatric Inventory (NPI-X) will indicate improvement in these areas.</p><p><b>type</b>: <span title=\"Codes: \">secondary</span></p></blockquote><blockquote><p><b>objective</b></p><p><b>name</b>: To assess the dose-dependent improvements in activities of daily living. Improved scores on the Disability Assessment for Dementia (DAD) will indicate improvement in these areas.</p><p><b>type</b>: <span title=\"Codes: \">secondary</span></p></blockquote><blockquote><p><b>objective</b></p><p><b>name</b>: To assess the dose-dependent improvements in an extended assessment of cognition that integrates attention/concentration tasks. The Alzheimers Disease Assessment Scale-14 item Cognitive Subscale, hereafter referred to as ADAS-Cog (14), will be used for this assessment.</p><p><b>type</b>: <span title=\"Codes: \">secondary</span></p></blockquote><blockquote><p><b>objective</b></p><p><b>name</b>: To assess the treatment response as a function of Apo E genotype.</p><p><b>type</b>: <span title=\"Codes: \">secondary</span></p></blockquote></div>"
        },
        "identifier": [
          {
            "use": "usual",
            "value": "H2Q-MC-LZZT"
          },
          {
            "use": "official",
            "system": "https://clinicaltrials.gov/show/",
            "value": "NCTA12313212"
          },
          {
            "use": "secondary",
            "type": {
              "coding": [
                {
                  "code": "PLAC"
                }
              ]
            },
            "value": "NCTA12313212"
          },
          {
            "type": {
              "coding": [
                {
                  "code": "PUBCHEM"
                }
              ]
            },
            "value": "60809"
          }
        ],
        "title": "Safety and Efficacy of the Xanomeline Transdermal Therapeutic System (TTS) in Patients with Mild to Moderate Alzheimers Disease",
        "protocol": [
          {
            "reference": "PlanDefinition/H2Q-MC-LZZT-ProtocolDesign"
          }
        ],
        "status": "completed",
        "primaryPurposeType": {
          "coding": [
            {
              "code": "treatment"
            }
          ]
        },
        "phase": {
          "coding": [
            {
              "code": "phase-3"
            }
          ]
        },
        "category": [
          {
            "coding": [
              {
                "system": "http://ncimeta.nci.nih.gov",
                "code": "C98388",
                "display": "Interventional Study"
              }
            ]
          },
          {
            "coding": [
              {
                "system": "http://ncimeta.nci.nih.gov",
                "code": "C15417",
                "display": "Randomized Clinical Trial"
              }
            ]
          },
          {
            "coding": [
              {
                "system": "http://ncimeta.nci.nih.gov",
                "code": "C15228",
                "display": "Double Blind Study"
              }
            ]
          },
          {
            "coding": [
              {
                "system": "http://ncimeta.nci.nih.gov",
                "code": "C49648",
                "display": "Placebo Control"
              }
            ]
          },
          {
            "coding": [
              {
                "system": "http://ncimeta.nci.nih.gov",
                "code": "C82639",
                "display": "Parallel Study"
              }
            ]
          }
        ],
        "focus": [
          {
            "coding": [
              {
                "system": "http://ncimeta.nci.nih.gov",
                "code": "C152926",
                "display": "Xanomeline"
              }
            ]
          },
          {
            "coding": [
              {
                "system": "http://ncimeta.nci.nih.gov",
                "code": "C149996",
                "display": "Transdermal Patch Dosage Form"
              }
            ]
          },
          {
            "coding": [
              {
                "system": "https://pubmed.ncbi.nlm.nih.gov",
                "code": "9109749",
                "display": "Effects of xanomeline, a selective muscarinic receptor agonist, on cognitive function and behavioral symptoms in Alzheimer disease"
              }
            ]
          }
        ],
        "condition": [
          {
            "coding": [
              {
                "code": "26929004",
                "display": "Alzheimer's Disease (Disorder)"
              }
            ]
          }
        ],
        "contact": [
          {
            "name": "Bob James, Ph.D.",
            "telecom": [
              {
                "system": "phone",
                "value": "555-555-5555",
                "use": "work"
              }
            ]
          }
        ],
        "relatedArtifact": [
          {
            "type": "documentation",
            "label": "Arch Neurol.1997;54(4):465-473",
            "display": "Arch Neurol.1997;54(4):465-473",
            "citation": "Bodick NC, Offen WW, Levey AI, et al. Effects of xanomeline, a selective muscarinic receptor agonist, on cognitive function and behavioral symptoms in Alzheimer disease. Arch Neurol. 1997;54(4):465-473. doi:10.1001/archneur.1997.00550160091022"
          },
          {
            "type": "documentation",
            "label": "Protocol H2Q-MC-LZZT(c)",
            "url": "https://clinicaltrials.gov/show/NCTA12313212/Lzzt_protocol_redacted.pdf"
          }
        ],
        "keyword": [
          {
            "coding": [
              {
                "system": "https://id.nlm.nih.gov/mesh",
                "code": "D018721"
              }
            ],
            "text": "Selective M1 muscarinic agonists"
          },
          {
            "coding": [
              {
                "system": "https://id.nlm.nih.gov/mesh",
                "code": "D000544"
              }
            ],
            "text": "Alzheimer Disease"
          },
          {
            "coding": [
              {
                "system": "https://id.nlm.nih.gov/mesh",
                "code": "D018721"
              }
            ],
            "text": "Selective M1 muscarinic agonists"
          }
        ],
        "description": "## Xanomeline (LY246708)\n### Protocol H2Q-MC-LZZT(c) \nSafety and Efficacy of the Xanomeline Transdermal Therapeutic System (TTS) in Patients with Mild to Moderate Alzheimers Disease",
        "enrollment": [
          {
            "reference": "Group/H2Q-MC-LZZT-ResearchStudy-Inclusion"
          },
          {
            "reference": "Group/H2Q-MC-LZZT-ResearchStudy-Exclusion"
          }
        ],
        "sponsor": {
          "reference": "Organization/EliLillyAndCompany"
        },
        "principalInvestigator": {
          "reference": "Practitioner/SamGetWell"
        },
        "reasonStopped": {
          "coding": [
            {
              "code": "accrual-goal-met"
            }
          ]
        },
        "arm": [
          {
            "name": "Placebo",
            "type": {
              "coding": [
                {
                  "system": "http://ncimeta.nci.nih.gov",
                  "code": "C49648"
                }
              ]
            },
            "description": "Placebo arm"
          },
          {
            "name": "Low-dose xanomeline arm",
            "type": {
              "coding": [
                {
                  "system": "http://ncimeta.nci.nih.gov",
                  "code": "C174266"
                }
              ]
            },
            "description": "Low-dose xanomeline arm (50 cm2 TTS Formulation E, 54 mg xanomeline)"
          },
          {
            "name": "High-dose xanomeline arm",
            "type": {
              "coding": [
                {
                  "system": "http://ncimeta.nci.nih.gov",
                  "code": "C174266"
                }
              ]
            },
            "description": "High-dose xanomeline arm (75 cm2 TTS Formulation E, 81 mg xanomeline)"
          }
        ],
        "objective": [
          {
            "name": "To determine if there is a statistically significant relationship (overall Type 1 error rate, =.05) between the change in both ADAS-Cog and CIBIC+ scores, and drug dose (0, 50 cm2 [54 mg], and 75 cm2 [81 mg]).",
            "type": {
              "coding": [
                {
                  "code": "primary"
                }
              ]
            }
          },
          {
            "name": "To document the safety profile of the xanomeline TTS.",
            "type": {
              "coding": [
                {
                  "code": "primary"
                }
              ]
            }
          },
          {
            "name": "To assess the dose-dependent improvement in behavior. Improved scores on the Revised Neuropsychiatric Inventory (NPI-X) will indicate improvement in these areas.",
            "type": {
              "coding": [
                {
                  "code": "secondary"
                }
              ]
            }
          },
          {
            "name": "To assess the dose-dependent improvements in activities of daily living. Improved scores on the Disability Assessment for Dementia (DAD) will indicate improvement in these areas.",
            "type": {
              "coding": [
                {
                  "code": "secondary"
                }
              ]
            }
          },
          {
            "name": "To assess the dose-dependent improvements in an extended assessment of cognition that integrates attention/concentration tasks. The Alzheimers Disease Assessment Scale-14 item Cognitive Subscale, hereafter referred to as ADAS-Cog (14), will be used for this assessment.",
            "type": {
              "coding": [
                {
                  "code": "secondary"
                }
              ]
            }
          },
          {
            "name": "To assess the treatment response as a function of Apo E genotype.",
            "type": {
              "coding": [
                {
                  "code": "secondary"
                }
              ]
            }
          }
        ]
      },
      "request": {
        "method": "POST",
        "url": "ResearchStudy"
      }
    }
  ]
}